latitude,longitude,groundspeed,GPSAltitude,accelerationX,accelerationY,accelerationZ,gyroX,gyroY,gyroZ,temperature,altitude,pressure(hPa)
0.000000,0.000000,0.000000,0.000000,-0.095768,-9.864111,-0.478840,-0.004263,-0.014123,-0.041302,28.600000,178.299622,998.292480
0.000000,0.000000,0.000000,0.000000,-0.086191,-9.835381,-0.526724,-0.008260,-0.015455,-0.034907,28.670000,178.386581,998.282166
0.000000,0.000000,0.000000,0.000000,-0.045490,-9.844957,-0.536301,-0.005596,-0.014655,-0.034374,28.670000,178.386581,998.282166
0.000000,0.000000,0.000000,0.000000,-0.268151,-9.842564,-0.553061,-0.001332,-0.013590,-0.036505,28.670000,178.386581,998.282166
0.000000,0.000000,0.000000,0.000000,-0.100556,-9.864111,-0.320823,0.011724,-0.009593,-0.063685,28.620001,178.912964,998.219604
0.000000,0.000000,0.000000,0.000000,-0.244209,-9.880871,-0.565032,0.008793,-0.013323,-0.058622,28.620001,178.912964,998.219604
0.000000,0.000000,0.000000,0.000000,-0.088585,-9.859323,-0.466869,-0.009859,-0.019185,-0.028778,28.620001,178.912964,998.219604
0.000000,0.000000,0.000000,0.000000,-0.608127,-9.828198,-0.900220,-0.009326,-0.003198,-0.056490,28.620001,178.912964,998.219604
0.000000,0.000000,0.000000,0.000000,-0.153229,-9.861717,-0.414197,0.009326,-0.014922,-0.038371,28.620001,178.870499,998.224670
0.000000,0.000000,0.000000,0.000000,-0.143652,-9.811439,-0.768539,0.093528,-0.014389,-0.060221,28.620001,178.870499,998.224670
0.000000,0.000000,0.000000,0.000000,1.252167,-9.852140,0.040701,-0.002665,-0.035706,-0.005329,28.620001,178.870499,998.224670
0.000000,0.000000,0.000000,0.000000,0.260968,-9.897630,0.050278,-0.030110,-0.008260,-0.030377,28.620001,178.870499,998.224670
0.000000,0.000000,0.000000,0.000000,-0.270545,-9.866506,-0.248997,-0.047963,-0.024515,0.009326,28.620001,178.813721,998.231384
0.000000,0.000000,0.000000,0.000000,0.064643,-9.852140,-0.505177,0.008793,-0.031443,-0.039703,28.620001,178.813721,998.231384
0.000000,0.000000,0.000000,0.000000,-0.332794,-9.852140,-0.478840,0.031176,-0.023982,-0.072744,28.620001,178.813721,998.231384
0.000000,0.000000,0.000000,0.000000,-0.098162,-9.830592,-0.517148,-0.001332,0.002665,0.014123,28.620001,178.813721,998.231384
0.000000,0.000000,0.000000,0.000000,-0.143652,-9.837775,-0.395043,0.013323,-0.008260,-0.009060,28.620001,178.757446,998.238098
0.000000,0.000000,0.000000,0.000000,-0.191536,-9.847352,-0.299275,0.006129,-0.009326,-0.031709,28.620001,178.757446,998.238098
0.000000,0.000000,0.000000,0.000000,0.225055,-9.835381,-0.591368,0.015188,-0.020784,-0.042101,28.620001,178.757446,998.238098
0.000000,0.000000,0.000000,0.000000,0.055067,-9.837775,-0.411803,-0.007994,-0.014655,-0.026380,28.620001,178.757446,998.238098
0.000000,0.000000,0.000000,0.000000,-0.167594,-9.852140,-0.320823,-0.010658,-0.015721,-0.032775,28.620001,178.714478,998.243225
0.000000,0.000000,0.000000,0.000000,-0.035913,-9.828198,-0.550666,-0.014123,-0.013057,-0.024248,28.620001,178.714478,998.243225
0.000000,0.000000,0.000000,0.000000,0.040701,-9.861717,-0.416591,0.008260,-0.015721,-0.026113,28.620001,178.714478,998.243225
0.000000,0.000000,0.000000,0.000000,0.002394,-9.835381,-0.466869,-0.008260,-0.015988,-0.044233,28.620001,178.714478,998.243225
0.000000,0.000000,0.000000,0.000000,-0.141258,-9.864111,-0.478840,-0.008527,-0.013323,-0.045032,28.620001,178.671509,998.248291
0.000000,0.000000,0.000000,0.000000,-0.366313,-9.847352,-0.373495,0.005063,-0.010925,-0.040769,28.620001,178.671509,998.248291
0.000000,0.000000,0.000000,0.000000,-0.296881,-9.837775,-0.438139,0.000000,-0.016254,-0.035173,28.620001,178.671509,998.248291
0.000000,0.000000,0.000000,0.000000,-0.354342,-9.816227,-0.584185,-0.002665,-0.018919,-0.030910,28.620001,178.671509,998.248291
0.000000,0.000000,0.000000,0.000000,-0.215478,-9.852140,-0.505177,-0.005063,-0.018119,-0.029311,28.620001,178.615234,998.255005
0.000000,0.000000,0.000000,0.000000,-0.191536,-9.852140,-0.359130,-0.010925,-0.016787,-0.031975,28.620001,178.615234,998.255005
0.000000,0.000000,0.000000,0.000000,-0.277727,-9.840169,-0.435745,-0.006662,-0.016521,-0.033574,28.620001,178.615234,998.255005
0.000000,0.000000,0.000000,0.000000,-0.313640,-9.852140,-0.366313,0.000266,-0.018119,-0.026380,28.620001,178.572784,998.260010
0.000000,0.000000,0.000000,0.000000,-0.395043,-9.849746,-0.490811,-0.013856,-0.017587,-0.023449,28.620001,178.572784,998.260010
0.000000,0.000000,0.000000,0.000000,-0.220267,-9.849746,-0.509965,-0.003730,-0.015188,-0.039969,28.620001,178.572784,998.260010
0.000000,0.000000,0.000000,0.000000,-0.299275,-9.840169,-0.426168,0.000799,-0.016254,-0.031709,28.620001,178.572784,998.260010
0.000000,0.000000,0.000000,0.000000,-0.328006,-9.859323,-0.438139,-0.001332,-0.016521,-0.033041,28.620001,178.530319,998.265076
0.000000,0.000000,0.000000,0.000000,-0.210690,-9.832987,-0.521936,-0.005063,-0.017853,-0.027979,28.620001,178.530319,998.265076
0.000000,0.000000,0.000000,0.000000,-0.155623,-9.828198,-0.517148,-0.002132,-0.016787,-0.033841,28.620001,178.530319,998.265076
0.000000,0.000000,0.000000,0.000000,-0.155623,-9.837775,-0.378284,-0.004796,-0.015721,-0.039436,28.620001,178.530319,998.265076
0.000000,0.000000,0.000000,0.000000,-0.210690,-9.854534,-0.435745,-0.001066,-0.016787,-0.033841,28.629999,178.472519,998.271973
0.000000,0.000000,0.000000,0.000000,-0.258574,-9.859323,-0.450110,0.003198,-0.014655,-0.035706,28.629999,178.472519,998.271973
0.000000,0.000000,0.000000,0.000000,-0.201113,-9.840169,-0.462081,-0.007194,-0.013590,-0.039969,28.629999,178.472519,998.271973
0.000000,0.000000,0.000000,0.000000,-0.210690,-9.823410,-0.445322,-0.001865,-0.014389,-0.035173,28.629999,178.472519,998.271973
0.000000,0.000000,0.000000,0.000000,-0.217872,-9.852140,-0.404620,0.006662,-0.013057,-0.041302,28.629999,178.415222,998.278748
0.000000,0.000000,0.000000,0.000000,-0.272939,-9.849746,-0.423774,-0.006928,-0.015988,-0.036772,28.629999,178.415222,998.278748
0.000000,0.000000,0.000000,0.000000,-0.325611,-9.840169,-0.469264,-0.003997,-0.017320,-0.033574,28.629999,178.415222,998.278748
0.000000,0.000000,0.000000,0.000000,-0.162806,-9.852140,-0.397437,0.003730,-0.017320,-0.030110,28.629999,178.415222,998.278748
0.000000,0.000000,0.000000,0.000000,-0.146046,-9.854534,-0.414197,-0.007194,-0.019718,-0.027979,28.629999,178.369186,998.284241
0.000000,0.000000,0.000000,0.000000,-0.138864,-9.842564,-0.533907,0.000266,-0.014389,-0.040769,28.629999,178.369186,998.284241
0.000000,0.000000,0.000000,0.000000,-0.201113,-9.847352,-0.445322,0.001066,-0.012257,-0.039436,28.629999,178.369186,998.284241
0.000000,0.000000,0.000000,0.000000,-0.349553,-9.844957,-0.438139,-0.002931,-0.014655,-0.038637,28.629999,178.369186,998.284241
0.000000,0.000000,0.000000,0.000000,-0.325611,-9.847352,-0.486023,-0.001332,-0.016254,-0.034907,28.629999,178.323151,998.289673
0.000000,0.000000,0.000000,0.000000,-0.318429,-9.832987,-0.493206,-0.002398,-0.017587,-0.029577,28.629999,178.323151,998.289673
0.000000,0.000000,0.000000,0.000000,-0.253785,-9.835381,-0.433351,-0.007461,-0.018119,-0.031176,28.629999,178.323151,998.289673
0.000000,0.000000,0.000000,0.000000,-0.148441,-9.837775,-0.418985,-0.003730,-0.016254,-0.032775,28.629999,178.323151,998.289673
0.000000,0.000000,0.000000,0.000000,-0.153229,-9.844957,-0.409408,0.003198,-0.017853,-0.032508,28.639999,178.293991,998.293152
0.000000,0.000000,0.000000,0.000000,-0.088585,-9.830592,-0.476446,-0.002931,-0.008260,-0.039703,28.639999,178.293991,998.293152
0.000000,0.000000,0.000000,0.000000,-0.191536,-9.835381,-0.620098,0.005063,0.001865,-0.092196,28.639999,178.293991,998.293152
0.000000,0.000000,0.000000,0.000000,-0.550666,-9.866506,-0.268151,-0.000799,-0.011458,-0.044766,28.639999,178.293991,998.293152
0.000000,0.000000,0.000000,0.000000,-0.155623,-9.842564,-0.162806,-0.023182,-0.016787,0.005596,28.639999,178.262802,998.296875
0.000000,0.000000,0.000000,0.000000,-0.653617,-9.878476,0.366313,-0.024781,-0.040236,-0.013323,28.639999,178.262802,998.296875
0.000000,0.000000,0.000000,0.000000,-0.246603,-9.847352,-0.423774,-0.009593,-0.047164,-0.016254,28.639999,178.262802,998.296875
0.000000,0.000000,0.000000,0.000000,-0.098162,-9.789890,-1.007959,-0.097525,-0.009326,-0.047697,28.639999,178.262802,998.296875
0.000000,0.000000,0.000000,0.000000,-0.007183,-10.031705,0.000000,-0.040236,0.005596,-0.043700,28.639999,178.213684,998.302673
0.000000,0.000000,0.000000,0.000000,-0.342371,-9.610326,-1.479617,-0.002132,-0.146021,-0.024515,28.639999,178.213684,998.302673
0.000000,0.000000,0.000000,0.000000,-0.486023,-11.317391,-0.861913,0.001865,0.142291,-0.049029,28.639999,178.213684,998.302673
0.000000,0.000000,0.000000,0.000000,0.129287,-9.667787,0.107739,0.002132,-0.022649,-0.064750,28.639999,178.213684,998.302673
0.000000,0.000000,0.000000,0.000000,-0.452504,-10.690110,-0.785298,-0.012790,-0.117510,-0.005063,28.650000,178.184540,998.306152
0.000000,0.000000,0.000000,0.000000,0.239420,-8.671799,-0.557849,-0.027979,0.006928,0.007194,28.650000,178.184540,998.306152
0.000000,0.000000,0.000000,0.000000,-0.493206,-9.753978,-0.368707,0.023449,-0.105786,-0.042900,28.650000,178.184540,998.306152
0.000000,0.000000,0.000000,0.000000,-0.184354,-9.641450,-1.271321,0.027712,0.062619,-0.085002,28.650000,178.184540,998.306152
0.000000,0.000000,0.000000,0.000000,-0.193930,-8.487445,-0.962469,-0.030643,0.012790,-0.047697,28.650000,178.164078,998.308594
0.000000,0.000000,0.000000,0.000000,0.275333,-9.765948,-0.153229,-0.028778,-0.055424,-0.005596,28.650000,178.164078,998.308594
0.000000,0.000000,0.000000,0.000000,-0.031125,-9.842564,-0.632069,-0.006129,0.047697,-0.000799,28.650000,178.164078,998.308594
0.000000,0.000000,0.000000,0.000000,-0.131681,-9.730036,-0.995988,-0.028778,-0.002132,-0.027712,28.650000,178.164078,998.308594
0.000000,0.000000,0.000000,0.000000,0.021548,-9.773131,-0.617704,-0.004796,0.008260,-0.056757,28.660000,178.131332,998.312500
0.000000,0.000000,0.000000,0.000000,-0.134075,-9.962274,-0.397437,-0.005596,-0.011458,-0.022116,28.660000,178.131332,998.312500
0.000000,0.000000,0.000000,0.000000,-0.248997,-9.816227,-0.952892,-0.015188,0.026913,-0.001599,28.660000,178.131332,998.312500
0.000000,0.000000,0.000000,0.000000,-0.050278,-9.847352,-0.893037,-0.008260,-0.006662,-0.042101,28.660000,178.131332,998.312500
0.000000,0.000000,0.000000,0.000000,-0.600945,-9.873688,-0.579397,0.015721,0.008260,-0.050894,28.660000,178.066879,998.320129
0.000000,0.000000,0.000000,0.000000,-0.363919,-10.002975,-0.497994,0.017320,-0.059155,-0.038104,28.660000,178.066879,998.320129
0.000000,0.000000,0.000000,0.000000,-0.502782,-9.777920,-0.893037,-0.046098,-0.017853,-0.039170,28.660000,178.066879,998.320129
0.000000,0.000000,0.000000,0.000000,-0.035913,-9.835381,-0.550666,0.051427,-0.026380,-0.009593,28.670000,178.048981,998.322266
0.000000,0.000000,0.000000,0.000000,-0.426168,-9.792285,-0.644040,0.024515,-0.003997,-0.059688,28.670000,178.048981,998.322266
0.000000,0.000000,0.000000,0.000000,-0.150835,-9.873688,-0.466869,-0.015721,-0.028245,-0.043966,28.670000,178.042328,998.323059
0.000000,0.000000,0.000000,0.000000,0.050278,-9.876082,-0.742203,-0.036239,-0.016254,-0.042368,28.670000,178.042328,998.323059
0.000000,0.000000,0.000000,0.000000,-0.332794,-9.825804,-1.127669,-0.006395,-0.012257,-0.018386,28.670000,178.042328,998.323059
0.000000,0.000000,0.000000,0.000000,-0.160412,-9.849746,-0.486023,0.030377,-0.062086,-0.063152,28.670000,178.042328,998.323059
0.000000,0.000000,0.000000,0.000000,0.299275,-9.765948,-0.021548,0.011724,-0.123372,-0.062885,28.680000,177.992722,998.328979
0.000000,0.000000,0.000000,0.000000,-0.313640,-9.742006,-0.785298,-0.038637,-0.010658,0.011991,28.680000,177.992722,998.328979
0.000000,0.000000,0.000000,0.000000,-0.423774,-9.878476,-1.261744,0.021583,0.014922,-0.050894,28.680000,177.992722,998.328979
0.000000,0.000000,0.000000,0.000000,-0.433351,-9.773131,-1.072602,0.038637,-0.112714,-0.073011,28.680000,177.992722,998.328979
0.000000,0.000000,0.000000,0.000000,-0.323217,-9.840169,-0.258574,-0.071678,-0.008793,0.011991,28.690001,177.974304,998.331116
0.000000,0.000000,0.000000,0.000000,0.356736,-9.969456,-0.359130,-0.001599,-0.055424,-0.027979,28.690001,177.974304,998.331116
0.000000,0.000000,0.000000,0.000000,-0.021548,-9.785102,-1.003170,0.028511,0.106052,-0.077807,28.690001,177.974304,998.331116
0.000000,0.000000,0.000000,0.000000,-0.610521,-9.835381,-0.995988,-0.025047,-0.104453,-0.034107,28.690001,177.974304,998.331116
0.000000,0.000000,0.000000,0.000000,-0.011971,-9.859323,-0.639252,-0.054891,-0.043167,0.032242,28.690001,177.956406,998.333252
0.000000,0.000000,0.000000,0.000000,-0.335188,-9.797073,-0.912191,0.033308,0.081005,-0.020518,28.690001,177.956406,998.333252
0.000000,0.000000,0.000000,0.000000,-0.433351,-9.821015,-0.881066,0.052760,-0.028511,-0.052493,28.690001,177.956406,998.333252
0.000000,0.000000,0.000000,0.000000,0.093374,-9.864111,-0.335188,-0.028245,-0.005862,-0.024781,28.690001,177.956406,998.333252
0.000000,0.000000,0.000000,0.000000,-0.119710,-9.866506,-0.411803,-0.052760,-0.013856,-0.013057,28.700001,177.920090,998.337585
0.000000,0.000000,0.000000,0.000000,-0.445322,-9.828198,-0.960075,-0.002931,-0.034107,-0.015455,28.700001,177.920090,998.337585
0.000000,0.000000,0.000000,0.000000,-0.062249,-9.835381,-0.816423,0.018919,-0.033841,-0.033841,28.700001,177.920090,998.337585
0.000000,0.000000,0.000000,0.000000,-0.318429,-9.868899,-0.423774,-0.020784,0.030377,-0.014655,28.700001,177.920090,998.337585
0.000000,0.000000,0.000000,0.000000,-0.754174,-9.854534,-0.679953,-0.020251,0.049296,-0.011458,28.700001,177.913437,998.338379
0.000000,0.000000,0.000000,0.000000,-0.272939,-9.830592,-0.672771,0.023715,-0.038371,-0.056490,28.700001,177.913437,998.338379
0.000000,0.000000,0.000000,0.000000,-0.208296,-9.832987,-0.943315,0.018652,0.010126,-0.045832,28.700001,177.913437,998.338379
0.000000,0.000000,0.000000,0.000000,-0.299275,-9.847352,-0.768539,-0.005862,-0.032508,-0.031443,28.700001,177.913437,998.338379
0.000000,0.000000,0.000000,0.000000,-0.038307,-9.864111,-0.201113,0.000000,-0.041035,-0.050361,28.709999,177.878143,998.342590
0.000000,0.000000,0.000000,0.000000,-0.624887,-9.809045,-1.077391,-0.010925,-0.018919,-0.053825,28.709999,177.878143,998.342590
0.000000,0.000000,0.000000,0.000000,-0.428562,-9.823410,-1.230620,0.002132,-0.053292,-0.043700,28.709999,177.878143,998.342590
0.000000,0.000000,0.000000,0.000000,-0.031125,-9.835381,-0.739808,0.015455,0.018652,-0.046897,28.709999,177.878143,998.342590
0.000000,0.000000,0.000000,0.000000,-0.347159,-9.825804,-0.462081,0.015988,0.012524,-0.044499,28.719999,177.873535,998.343140
0.000000,0.000000,0.000000,0.000000,-0.028730,-9.871294,-0.347159,-0.001066,-0.003997,-0.014655,28.719999,177.873535,998.343140
0.000000,0.000000,0.000000,0.000000,-0.263362,-9.818622,-0.837971,-0.055957,-0.003198,0.001332,28.719999,177.873535,998.343140
0.000000,0.000000,0.000000,0.000000,-0.481235,-9.832987,-0.969652,-0.002665,-0.085268,-0.045032,28.719999,177.873535,998.343140
0.000000,0.000000,0.000000,0.000000,-0.265756,-9.830592,-0.466869,0.032775,0.041035,-0.088466,28.719999,177.883255,998.341980
0.000000,0.000000,0.000000,0.000000,-0.124498,-9.993398,-0.483629,0.001865,-0.019985,-0.049029,28.719999,177.883255,998.341980
0.000000,0.000000,0.000000,0.000000,-0.222661,-9.636662,-0.826000,-0.032775,0.001599,-0.006129,28.719999,177.883255,998.341980
0.000000,0.000000,0.000000,0.000000,-0.416591,-9.813833,-0.866701,0.012790,0.002132,-0.023982,28.719999,177.883255,998.341980
0.000000,0.000000,0.000000,0.000000,-0.459687,-9.844957,-0.605733,0.012790,-0.045565,-0.037838,28.730000,177.858704,998.344849
0.000000,0.000000,0.000000,0.000000,-0.229843,-9.856929,-0.409408,-0.001066,-0.052760,-0.043966,28.730000,177.858704,998.344849
0.000000,0.000000,0.000000,0.000000,-0.086191,-9.662998,-0.761356,-0.031709,0.035440,-0.039436,28.730000,177.858704,998.344849
0.000000,0.000000,0.000000,0.000000,-0.227449,-9.777920,-1.201889,0.015188,0.033041,-0.001332,28.730000,177.858704,998.344849
0.000000,0.000000,0.000000,0.000000,-0.464475,-9.782708,-0.746991,0.006662,0.017054,-0.031709,28.740000,177.837738,998.347351
0.000000,0.000000,0.000000,0.000000,-0.426168,-9.892841,-0.426168,-0.007994,-0.040769,-0.048496,28.740000,177.837738,998.347351
0.000000,0.000000,0.000000,0.000000,-0.306458,-9.842564,-0.756568,0.008793,-0.012790,-0.049828,28.740000,177.837738,998.347351
0.000000,0.000000,0.000000,0.000000,0.076614,-9.306262,-1.924938,-0.049828,0.018119,0.008260,28.740000,177.837738,998.347351
0.000000,0.000000,0.000000,0.000000,-0.143652,-9.825804,-0.560243,-0.036772,0.067149,-0.003464,28.740000,177.863815,998.344238
0.000000,0.000000,0.000000,0.000000,-0.679953,-9.909601,-0.148441,0.002931,0.003997,-0.026113,28.740000,177.863815,998.344238
0.000000,0.000000,0.000000,0.000000,-0.354342,-9.823410,-0.890643,0.007194,0.001066,-0.043167,28.740000,177.863815,998.344238
0.000000,0.000000,0.000000,0.000000,0.105345,-9.787497,-0.912191,0.000000,-0.003198,-0.066349,28.740000,177.840286,998.344238
0.000000,0.000000,0.000000,0.000000,-0.311246,-9.785102,-0.502782,-0.003464,-0.026113,-0.032775,28.750000,177.840286,998.347046
0.000000,0.000000,0.000000,0.000000,-0.328006,-9.921572,-0.588974,0.010392,-0.029311,-0.010126,28.750000,177.840286,998.347046
0.000000,0.000000,0.000000,0.000000,-0.402226,-9.926360,-0.897826,0.020784,0.006129,-0.050095,28.750000,177.840286,998.347046
0.000000,0.000000,0.000000,0.000000,-0.100556,-9.921572,-0.713472,-0.017320,-0.041302,-0.044499,28.760000,177.833130,998.347900
0.000000,0.000000,0.000000,0.000000,0.011971,-9.854534,-0.299275,-0.016521,-0.025847,-0.020784,28.760000,177.833130,998.347900
0.000000,0.000000,0.000000,0.000000,-0.593762,-9.828198,-0.821211,-0.004530,0.033041,-0.014123,28.760000,177.833130,998.347900
0.000000,0.000000,0.000000,0.000000,-0.603339,-9.818622,-1.051055,0.012524,0.005596,-0.047697,28.760000,177.833130,998.347900
0.000000,0.000000,0.000000,0.000000,-0.337582,-9.787497,-0.842759,0.014922,0.013590,-0.057023,28.770000,177.797318,998.352173
0.000000,0.000000,0.000000,0.000000,-0.040701,-10.314221,-0.567426,-0.011991,-0.040769,-0.031176,28.770000,177.797318,998.352173
0.000000,0.000000,0.000000,0.000000,-0.380678,-9.830592,-0.634463,-0.027712,-0.008793,-0.004263,28.770000,177.797318,998.352173
0.000000,0.000000,0.000000,0.000000,-0.521936,-9.823410,-0.653617,0.010925,-0.017853,-0.038371,28.770000,177.797318,998.352173
0.000000,0.000000,0.000000,0.000000,-0.316035,-9.840169,-0.675165,-0.011458,-0.028245,-0.032775,28.770000,177.792725,998.352722
0.000000,0.000000,0.000000,0.000000,-0.454898,-9.787497,-1.086968,-0.017853,0.000533,-0.023715,28.770000,177.792725,998.352722
0.000000,0.000000,0.000000,0.000000,-0.586579,-9.868899,-0.421380,-0.019718,-0.014655,-0.041568,28.770000,177.792725,998.352722
0.000000,0.000000,0.000000,0.000000,-0.210690,-9.787497,-0.517148,-0.010658,-0.025847,-0.032775,28.780001,177.783005,998.353882
0.000000,0.000000,0.000000,0.000000,-0.445322,-9.825804,-0.679953,-0.011458,0.025314,-0.044766,28.780001,177.853592,998.353882
0.000000,0.000000,0.000000,0.000000,-0.469264,-9.787497,-0.725443,0.017853,0.036505,-0.036772,28.790001,177.762024,998.356384
0.000000,0.000000,0.000000,0.000000,-0.117316,-10.038888,-0.725443,0.020784,-0.014389,-0.039170,28.790001,177.762024,998.356384
0.000000,0.000000,0.000000,0.000000,-0.337582,-9.749189,-0.737414,-0.017587,0.008260,-0.017853,28.790001,177.762024,998.356384
0.000000,0.000000,0.000000,0.000000,-0.466869,-9.825804,-0.737414,-0.017054,-0.006662,-0.019985,28.799999,177.708328,998.362732
0.000000,0.000000,0.000000,0.000000,-0.112527,-9.844957,-0.517148,-0.007994,-0.034640,-0.029044,28.799999,177.708328,998.362732
0.000000,0.000000,0.000000,0.000000,-0.320823,-9.765948,-0.797269,-0.001599,0.039436,-0.030110,28.799999,177.708328,998.362732
0.000000,0.000000,0.000000,0.000000,-0.469264,-9.938332,-0.866701,0.026646,0.007994,-0.048763,28.799999,177.708328,998.362732
0.000000,0.000000,0.000000,0.000000,-0.160412,-9.734824,-0.486023,0.007727,-0.129501,-0.056224,28.799999,177.689392,998.364990
0.000000,0.000000,0.000000,0.000000,-0.442927,-9.806650,-0.703895,-0.024515,0.006928,-0.028778,28.799999,177.689392,998.364990
0.000000,0.000000,0.000000,0.000000,-0.584185,-9.691729,-0.799663,0.023982,-0.045299,-0.082337,28.799999,177.689392,998.364990
0.000000,0.000000,0.000000,0.000000,-0.023942,-9.524135,-0.553061,0.033308,0.021317,-0.034374,28.799999,177.689392,998.364990
0.000000,0.000000,0.000000,0.000000,-0.117316,-10.156203,-0.646434,-0.016787,-0.061286,-0.003730,28.809999,177.682236,998.365845
0.000000,0.000000,0.000000,0.000000,-0.454898,-9.121908,-0.775721,-0.014655,0.032242,-0.042900,28.809999,177.682236,998.365845
0.000000,0.000000,0.000000,0.000000,-0.363919,-9.737218,-0.378284,0.028245,-0.114845,-0.070879,28.809999,177.682236,998.365845
0.000000,0.000000,0.000000,0.000000,-0.050278,-10.654198,-0.524330,0.010126,0.062619,-0.044766,28.809999,177.682236,998.365845
0.000000,0.000000,0.000000,0.000000,-0.478840,-9.210494,-1.041478,-0.009593,0.024781,-0.011991,28.820000,177.657684,998.368774
0.000000,0.000000,0.000000,0.000000,-0.826000,-9.787497,-0.593762,-0.003464,-0.012790,-0.054358,28.820000,177.657684,998.368774
0.000000,0.000000,0.000000,0.000000,-0.129287,-9.488221,-0.316035,0.019185,-0.008527,-0.053026,28.820000,177.657684,998.368774
0.000000,0.000000,0.000000,0.000000,-0.227449,-9.203311,-0.938527,0.016254,0.012257,-0.035972,28.820000,177.657684,998.368774
0.000000,0.000000,0.000000,0.000000,0.124498,-11.264719,-0.634463,-0.015721,-0.016787,0.057289,28.830000,177.651550,998.369507
0.000000,0.000000,0.000000,0.000000,-0.596156,-10.058042,-0.632069,0.007727,-0.023982,-0.053825,28.830000,177.651550,998.369507
0.000000,0.000000,0.000000,0.000000,-0.746991,-9.773131,-1.244985,-0.000533,0.005329,-0.056757,28.830000,177.651550,998.369507
0.000000,0.000000,0.000000,0.000000,-0.282516,-9.849746,-0.790087,-0.002665,-0.022649,-0.027712,28.830000,177.651550,998.369507
0.000000,0.000000,0.000000,0.000000,-0.141258,-9.871294,-0.517148,0.012257,-0.008260,-0.039703,28.830000,177.631592,998.371887
0.000000,0.000000,0.000000,0.000000,-0.723049,-9.844957,-0.603339,-0.009060,-0.034907,-0.019185,28.830000,177.631592,998.371887
0.000000,0.000000,0.000000,0.000000,-0.318429,-9.821015,-0.639252,-0.001599,-0.016521,-0.036239,28.830000,177.631592,998.371887
0.000000,0.000000,0.000000,0.000000,-0.047884,-9.785102,-0.529119,0.011724,0.008527,-0.060753,28.830000,177.631592,998.371887
0.000000,0.000000,0.000000,0.000000,-0.411803,-9.847352,-0.691924,-0.005596,-0.026113,-0.028778,28.840000,177.623932,998.372742
0.000000,0.000000,0.000000,0.000000,-0.265756,-9.842564,-0.572214,-0.006662,-0.016254,-0.019985,28.840000,177.623932,998.372742
0.000000,0.000000,0.000000,0.000000,-0.311246,-9.861717,-0.598550,-0.005596,-0.003730,-0.037571,28.840000,177.623932,998.372742
0.000000,0.000000,0.000000,0.000000,-0.308852,-9.828198,-0.521936,-0.003997,-0.006129,-0.037571,28.850000,177.616760,998.373596
0.000000,0.000000,0.000000,0.000000,-0.265756,-9.868899,-0.526724,-0.000533,-0.021850,-0.041035,28.850000,177.616760,998.373596
0.000000,0.000000,0.000000,0.000000,-0.486023,-9.895236,-0.533907,0.002132,-0.002132,-0.031709,28.850000,177.616760,998.373596
0.000000,0.000000,0.000000,0.000000,-0.217872,-9.856929,-0.615310,-0.011724,-0.022916,-0.022383,28.850000,177.616760,998.373596
0.000000,0.000000,0.000000,0.000000,-0.339977,-9.806650,-0.806846,-0.013057,-0.021317,-0.028778,28.860001,177.581467,998.377808
0.000000,0.000000,0.000000,0.000000,-0.126893,-9.888053,-0.387861,0.008527,-0.028778,-0.020784,28.860001,177.581467,998.377808
0.000000,0.000000,0.000000,0.000000,-0.402226,-9.830592,-0.368707,0.005862,-0.007461,-0.044766,28.860001,177.581467,998.377808
0.000000,0.000000,0.000000,0.000000,-0.251391,-9.852140,-0.409408,-0.015455,-0.019718,-0.042368,28.860001,177.581467,998.377808
0.000000,0.000000,0.000000,0.000000,-0.227449,-9.837775,-0.531513,0.010126,-0.002931,-0.054625,28.860001,177.559998,998.380371
0.000000,0.000000,0.000000,0.000000,-0.217872,-9.854534,-0.375890,-0.002665,-0.033841,-0.026113,28.860001,177.559998,998.380371
0.000000,0.000000,0.000000,0.000000,-0.361524,-9.847352,-0.459687,-0.008260,-0.025847,-0.027979,28.860001,177.559998,998.380371
0.000000,0.000000,0.000000,0.000000,-0.399832,-9.804255,-0.746991,0.007194,-0.023182,-0.028511,28.860001,177.559998,998.380371
0.000000,0.000000,0.000000,0.000000,-0.172383,-9.844957,-0.584185,0.013856,-0.008527,-0.023982,28.870001,177.598358,998.375793
0.000000,0.000000,0.000000,0.000000,-0.031125,-9.844957,-0.414197,-0.006129,-0.027446,-0.033574,28.870001,177.598358,998.375793
0.000000,0.000000,0.000000,0.000000,-0.476446,-9.852140,-0.402226,-0.008527,-0.011991,-0.050894,28.870001,177.598358,998.375793
0.000000,0.000000,0.000000,0.000000,-0.445322,-9.797073,-0.694318,-0.003198,-0.066083,-0.009859,28.870001,177.598358,998.375793
0.000000,0.000000,0.000000,0.000000,0.488417,-9.821015,-0.363919,-0.005596,-0.067415,-0.030377,28.879999,177.558975,998.380493
0.000000,0.000000,0.000000,0.000000,-0.675165,-9.852140,-0.481235,-0.005329,-0.046631,-0.066882,28.879999,177.558975,998.380493
0.000000,0.000000,0.000000,0.000000,-0.859518,-9.825804,-0.627281,-0.006395,-0.032508,-0.003997,28.879999,177.558975,998.380493
0.000000,0.000000,0.000000,0.000000,0.392649,-9.844957,-0.493206,-0.005596,-0.031709,-0.025047,28.879999,177.558975,998.380493
0.000000,0.000000,0.000000,0.000000,-0.430956,-9.832987,-0.596156,0.001599,0.000000,-0.069813,28.889999,177.566132,998.379639
0.000000,0.000000,0.000000,0.000000,-1.060631,-9.835381,-0.560243,-0.007994,-0.035173,-0.010925,28.889999,177.566132,998.379639
0.000000,0.000000,0.000000,0.000000,0.045490,-9.859323,-0.404620,-0.005596,-0.033841,-0.022649,28.889999,177.566132,998.379639
0.000000,0.000000,0.000000,0.000000,-0.193930,-9.825804,-0.567426,0.006928,0.014123,-0.066616,28.889999,177.566132,998.379639
0.000000,0.000000,0.000000,0.000000,-0.984017,-9.842564,-0.608127,-0.006395,-0.032775,-0.019452,28.889999,177.558975,998.380493
0.000000,0.000000,0.000000,0.000000,-0.038307,-9.842564,-0.476446,-0.007727,-0.033041,-0.015188,28.889999,177.558975,998.380493
0.000000,0.000000,0.000000,0.000000,-0.069432,-9.825804,-0.521936,0.008527,0.014655,-0.071412,28.889999,177.558975,998.380493
0.000000,0.000000,0.000000,0.000000,-0.790087,-9.823410,-0.603339,-0.004263,-0.026380,-0.027712,28.889999,177.558975,998.380493
0.000000,0.000000,0.000000,0.000000,-0.090980,-9.844957,-0.423774,-0.011724,-0.051427,0.005862,28.900000,177.565613,998.379700
0.000000,0.000000,0.000000,0.000000,0.009577,-9.842564,-0.486023,0.008260,0.005063,-0.060753,28.900000,177.565613,998.379700
0.000000,0.000000,0.000000,0.000000,-0.055067,-9.852140,-0.421380,-0.002665,-0.000266,-0.055158,28.910000,177.586594,998.377197
0.000000,0.000000,0.000000,0.000000,-0.045490,-9.844957,-0.452504,-0.000266,-0.015988,-0.041035,28.910000,177.586594,998.377197
0.000000,0.000000,0.000000,0.000000,-0.344765,-9.866506,-0.488417,-0.001332,-0.009326,-0.042368,28.910000,177.586594,998.377197
0.000000,0.000000,0.000000,0.000000,-0.624887,-9.828198,-0.593762,0.002132,-0.025314,-0.024515,28.920000,177.579422,998.378052
0.000000,0.000000,0.000000,0.000000,-0.186748,-9.804255,-0.536301,0.000533,-0.014123,-0.034107,28.920000,177.579422,998.378052
0.000000,0.000000,0.000000,0.000000,-0.237026,-9.878476,-0.471658,-0.008260,-0.014389,-0.047430,28.920000,177.579422,998.378052
0.000000,0.000000,0.000000,0.000000,-0.435745,-9.842564,-0.435745,-0.004263,-0.030910,-0.026913,28.920000,177.579422,998.378052
0.000000,0.000000,0.000000,0.000000,-0.373495,-9.873688,-0.409408,0.010392,-0.016521,-0.030110,28.920000,177.572266,998.378906
0.000000,0.000000,0.000000,0.000000,-0.313640,-9.811439,-0.653617,-0.000533,-0.009859,-0.039170,28.920000,177.572266,998.378906
0.000000,0.000000,0.000000,0.000000,-0.256180,-9.835381,-0.550666,-0.003997,-0.014922,-0.029844,28.920000,177.572266,998.378906
0.000000,0.000000,0.000000,0.000000,-0.275333,-9.806650,-0.462081,-0.002132,-0.029311,-0.028778,28.920000,177.572266,998.378906
0.000000,0.000000,0.000000,0.000000,-0.294487,-9.837775,-0.548272,0.009859,-0.075142,-0.047430,28.930000,177.578918,998.378113
0.000000,0.000000,0.000000,0.000000,-0.344765,-9.821015,-0.565032,0.006662,-0.012524,-0.044233,28.930000,177.578918,998.378113
0.000000,0.000000,0.000000,0.000000,-0.328006,-9.818622,-0.483629,-0.011458,-0.023182,-0.016787,28.930000,177.578918,998.378113
0.000000,0.000000,0.000000,0.000000,-0.244209,-9.835381,-0.526724,-0.004530,-0.018919,-0.036772,28.930000,177.578918,998.378113
0.000000,0.000000,0.000000,0.000000,-0.323217,-9.840169,-0.418985,0.007727,-0.005862,-0.045832,28.940001,177.557938,998.380615
0.000000,0.000000,0.000000,0.000000,-0.450110,-9.828198,-0.541090,-0.004530,-0.019985,-0.022383,28.940001,177.557938,998.380615
0.000000,0.000000,0.000000,0.000000,-0.349553,-9.835381,-0.653617,-0.001599,-0.015455,-0.030643,28.940001,177.557938,998.380615
0.000000,0.000000,0.000000,0.000000,-0.239420,-9.835381,-0.409408,-0.002398,-0.009859,-0.042634,28.950001,177.564590,998.379822
0.000000,0.000000,0.000000,0.000000,-0.395043,-9.844957,-0.368707,-0.005063,-0.019185,-0.029311,28.950001,177.564590,998.379822
0.000000,0.000000,0.000000,0.000000,-0.385466,-9.837775,-0.529119,0.003730,-0.014123,-0.034907,28.950001,177.564590,998.379822
0.000000,0.000000,0.000000,0.000000,-0.339977,-9.823410,-0.538695,0.004796,-0.013323,-0.038371,28.950001,177.564590,998.379822
0.000000,0.000000,0.000000,0.000000,-0.368707,-9.837775,-0.567426,-0.009060,-0.019985,-0.025314,28.950001,177.557938,998.380615
0.000000,0.000000,0.000000,0.000000,-0.313640,-9.840169,-0.560243,-0.006928,-0.014655,-0.038104,28.950001,177.557938,998.380615
0.000000,0.000000,0.000000,0.000000,-0.914585,-9.804255,-0.751779,0.017853,0.010392,-0.123639,28.950001,177.557938,998.380615
0.000000,0.000000,0.000000,0.000000,-0.828394,-9.856929,-0.201113,0.037838,-0.210239,-0.082070,28.950001,177.557938,998.380615
0.000000,0.000000,0.000000,0.000000,0.225055,-9.682152,-0.445322,0.015988,0.010925,-0.090331,28.959999,177.549759,998.381592
0.000000,0.000000,0.000000,0.000000,0.004788,-9.770737,-0.359130,0.050628,-0.005063,0.068481,28.959999,177.549759,998.381592
0.000000,0.000000,0.000000,0.000000,-0.550666,-9.923966,-0.627281,0.019985,-0.022916,-0.068747,28.959999,177.549759,998.381592
0.000000,0.000000,0.000000,0.000000,-0.502782,-9.880871,-0.105345,-0.012257,-0.027179,-0.045565,28.959999,177.549759,998.381592
0.000000,0.000000,0.000000,0.000000,-0.083797,-9.751583,-0.351948,0.005063,-0.043966,-0.055957,28.969999,177.557434,998.380676
0.000000,0.000000,0.000000,0.000000,-0.397437,-9.866506,-0.112527,-0.015455,-0.095926,-0.005329,28.969999,177.557434,998.380676
0.000000,0.000000,0.000000,0.000000,0.007183,-9.923966,-0.241814,-0.007461,0.000533,-0.057556,28.969999,177.557434,998.380676
0.000000,0.000000,0.000000,0.000000,-0.088585,-9.797073,-0.531513,-0.026646,-0.023182,-0.006928,28.969999,177.557434,998.380676
0.000000,0.000000,0.000000,0.000000,-0.325611,-9.900024,-0.615310,-0.002132,-0.012790,-0.009060,28.980000,177.520599,998.385071
0.000000,0.000000,0.000000,0.000000,-0.186748,-9.825804,-0.306458,-0.013057,-0.040502,-0.011724,28.980000,177.520599,998.385071
0.000000,0.000000,0.000000,0.000000,-0.596156,-9.921572,-0.004788,-0.034640,-0.008527,-0.026113,28.980000,177.520599,998.385071
0.000000,0.000000,0.000000,0.000000,-0.359130,-9.861717,-0.430956,-0.011991,-0.018919,-0.004530,28.980000,177.520599,998.385071
0.000000,0.000000,0.000000,0.000000,0.059855,-9.787497,-1.000776,-0.011191,-0.016521,-0.025314,28.990000,177.541580,998.382568
0.000000,0.000000,0.000000,0.000000,-0.167594,-9.840169,-0.339977,0.003997,-0.011724,-0.035972,28.990000,177.541580,998.382568
0.000000,0.000000,0.000000,0.000000,-0.344765,-9.902418,0.043096,-0.001599,-0.013323,-0.036772,28.990000,177.541580,998.382568
0.000000,0.000000,0.000000,0.000000,-0.239420,-9.832987,-0.620098,-0.007994,-0.012524,-0.036239,28.990000,177.541580,998.382568
0.000000,0.000000,0.000000,0.000000,-0.172383,-9.574412,-0.907402,-0.035972,-0.040769,-0.031443,28.990000,177.546188,998.382019
0.000000,0.000000,0.000000,0.000000,-0.079009,-9.775525,0.136469,-0.008260,0.034907,-0.023715,28.990000,177.546188,998.382019
0.000000,0.000000,0.000000,0.000000,-0.689530,-9.780313,-0.500388,0.030110,-0.046098,-0.017320,28.990000,177.546188,998.382019
0.000000,0.000000,0.000000,0.000000,-0.311246,-9.801862,-0.967257,-0.025580,-0.021051,-0.029844,28.990000,177.546188,998.382019
0.000000,0.000000,0.000000,0.000000,-0.110133,-9.878476,-0.222661,-0.030643,-0.010658,-0.038104,29.000000,177.541061,998.382629
0.000000,0.000000,0.000000,0.000000,-0.248997,-9.876082,-0.090980,0.033308,-0.039170,-0.022916,29.000000,177.541061,998.382629
0.000000,0.000000,0.000000,0.000000,-0.067038,-9.859323,-0.706290,0.029844,-0.081804,-0.027979,29.000000,177.541061,998.382629
0.000000,0.000000,0.000000,0.000000,0.059855,-9.825804,-0.347159,-0.035440,-0.015988,-0.052760,29.000000,177.541061,998.382629
0.000000,0.000000,0.000000,0.000000,-0.349553,-9.871294,-0.225055,-0.008793,-0.005862,-0.052227,29.010000,177.534424,998.383423
0.000000,0.000000,0.000000,0.000000,-0.375890,-9.928755,-0.241814,0.033574,0.024781,-0.025047,29.010000,177.534424,998.383423
0.000000,0.000000,0.000000,0.000000,-0.184354,-9.813833,-0.723049,0.015988,0.000533,-0.028245,29.010000,177.534424,998.383423
0.000000,0.000000,0.000000,0.000000,-0.225055,-9.847352,-0.806846,-0.037038,-0.011458,-0.022916,29.010000,177.555389,998.380920
0.000000,0.000000,0.000000,0.000000,-0.457293,-9.835381,-0.306458,0.002132,-0.022383,-0.042634,29.010000,177.555389,998.380920
0.000000,0.000000,0.000000,0.000000,-0.344765,-9.777920,-0.440533,0.022649,-0.031709,-0.041302,29.010000,177.555389,998.380920
0.000000,0.000000,0.000000,0.000000,-0.205901,-9.809045,-0.548272,-0.014389,-0.074343,-0.058089,29.010000,177.555389,998.380920
0.000000,0.000000,0.000000,0.000000,-0.428562,-9.823410,-0.495600,-0.025047,-0.033308,-0.017853,29.020000,177.530319,998.383911
0.000000,0.000000,0.000000,0.000000,-0.033519,-9.861717,-0.447716,0.015721,-0.031443,-0.014655,29.020000,177.530319,998.383911
0.000000,0.000000,0.000000,0.000000,0.031125,-9.842564,-0.409408,0.011191,-0.017587,-0.032775,29.020000,177.530319,998.383911
0.000000,0.000000,0.000000,0.000000,-0.131681,-9.842564,-0.404620,-0.019452,-0.017054,-0.039170,29.020000,177.530319,998.383911
0.000000,0.000000,0.000000,0.000000,-0.244209,-9.849746,-0.526724,-0.001599,-0.017853,-0.037038,29.030001,177.551300,998.381409
0.000000,0.000000,0.000000,0.000000,-0.172383,-9.864111,-0.450110,0.014922,-0.018119,-0.030643,29.030001,177.551300,998.381409
0.000000,0.000000,0.000000,0.000000,-0.174777,-9.864111,-0.366313,-0.012524,-0.012790,-0.035173,29.030001,177.551300,998.381409
0.000000,0.000000,0.000000,0.000000,-0.148441,-9.849746,-0.428562,-0.006662,-0.017320,-0.043966,29.030001,177.551300,998.381409
0.000000,0.000000,0.000000,0.000000,-0.409408,-9.856929,-0.404620,0.007727,-0.016254,-0.030110,29.040001,177.558456,998.380554
0.000000,0.000000,0.000000,0.000000,-0.593762,-9.842564,-0.531513,-0.006129,-0.015455,-0.029044,29.040001,177.558456,998.380554
0.000000,0.000000,0.000000,0.000000,-0.486023,-9.842564,-0.541090,-0.007727,-0.021850,-0.026113,29.040001,177.558456,998.380554
0.000000,0.000000,0.000000,0.000000,-0.155623,-9.842564,-0.454898,0.005596,-0.022916,-0.028245,29.040001,177.558456,998.380554
0.000000,0.000000,0.000000,0.000000,-0.057461,-9.849746,-0.423774,-0.002931,-0.014655,-0.041835,29.049999,177.579422,998.378052
0.000000,0.000000,0.000000,0.000000,-0.141258,-9.849746,-0.464475,-0.003997,-0.001865,-0.046631,29.049999,177.579422,998.378052
0.000000,0.000000,0.000000,0.000000,-0.416591,-9.854534,-0.308852,0.001066,-0.013590,-0.031975,29.049999,177.579422,998.378052
0.000000,0.000000,0.000000,0.000000,-0.481235,-9.825804,-0.418985,0.008793,-0.019185,-0.036239,29.049999,177.579422,998.378052
0.000000,0.000000,0.000000,0.000000,-0.198719,-9.813833,-0.644040,0.000799,-0.020251,-0.025847,29.059999,177.597336,998.375916
0.000000,0.000000,0.000000,0.000000,-0.146046,-9.837775,-0.557849,-0.010126,-0.019985,-0.012257,29.059999,177.597336,998.375916
0.000000,0.000000,0.000000,0.000000,-0.292093,-9.852140,-0.495600,-0.007994,-0.020518,-0.023982,29.059999,177.597336,998.375916
0.000000,0.000000,0.000000,0.000000,-0.304064,-9.825804,-0.591368,-0.002132,-0.018386,-0.022116,29.059999,177.597336,998.375916
0.000000,0.000000,0.000000,0.000000,-0.179565,-9.866506,-0.404620,0.007194,-0.013590,-0.026113,29.059999,177.663818,998.368042
0.000000,0.000000,0.000000,0.000000,-0.191536,-9.821015,-0.526724,0.001865,-0.014123,-0.028778,29.059999,177.663818,998.368042
0.000000,0.000000,0.000000,0.000000,-0.112527,-9.852140,-0.371101,0.009593,0.001865,-0.053825,29.059999,177.663818,998.368042
0.000000,0.000000,0.000000,0.000000,-0.318429,-9.871294,-0.435745,0.001066,-0.009593,-0.047164,29.070000,177.624435,998.372681
0.000000,0.000000,0.000000,0.000000,-0.476446,-9.811439,-0.593762,-0.013856,-0.013590,-0.034907,29.070000,177.624435,998.372681
0.000000,0.000000,0.000000,0.000000,-0.366313,-9.861717,-0.426168,-0.011191,-0.018652,-0.035173,29.070000,177.624435,998.372681
0.000000,0.000000,0.000000,0.000000,0.158017,-9.861717,-0.407014,-0.007727,-0.038637,-0.043433,29.070000,177.624435,998.372681
0.000000,0.000000,0.000000,0.000000,-0.148441,-9.782708,-0.545878,0.006129,-0.016254,-0.041568,29.080000,177.672516,998.367004
0.000000,0.000000,0.000000,0.000000,0.229843,-9.914390,-0.541090,0.026646,-0.018652,-0.074343,29.080000,177.672516,998.367004
0.000000,0.000000,0.000000,0.000000,-0.330400,-9.840169,-0.653617,-0.003997,-0.020784,-0.016254,29.080000,177.672516,998.367004
0.000000,0.000000,0.000000,0.000000,-0.380678,-9.866506,-0.454898,-0.001599,-0.025314,-0.042101,29.080000,177.672516,998.367004
0.000000,0.000000,0.000000,0.000000,-0.158017,-9.861717,-0.442927,0.017587,-0.015721,-0.046098,29.090000,177.665863,998.367798
0.000000,0.000000,0.000000,0.000000,-0.253785,-9.825804,-0.600945,-0.003464,-0.010925,-0.042900,29.090000,177.665863,998.367798
0.000000,0.000000,0.000000,0.000000,-0.481235,-9.854534,-0.380678,-0.006928,-0.020784,-0.034374,29.090000,177.665863,998.367798
0.000000,0.000000,0.000000,0.000000,-0.361524,-9.852140,-0.258574,0.002931,-0.014389,-0.045032,29.090000,177.665863,998.367798
0.000000,0.000000,0.000000,0.000000,-0.294487,-9.907207,-0.639252,-0.004796,-0.013590,-0.028778,29.100000,177.670471,998.367249
0.000000,0.000000,0.000000,0.000000,-0.349553,-9.765948,-0.469264,-0.014655,-0.021317,-0.033308,29.100000,177.670471,998.367249
0.000000,0.000000,0.000000,0.000000,-0.208296,-9.878476,-0.426168,-0.007994,-0.009326,-0.032775,29.100000,177.670471,998.367249
0.000000,0.000000,0.000000,0.000000,0.014365,-9.818622,-0.476446,0.018119,-0.004263,-0.053559,29.100000,177.670471,998.367249
0.000000,0.000000,0.000000,0.000000,-0.383072,-9.842564,-0.663194,-0.001599,-0.006928,-0.033308,29.110001,177.645920,998.370178
0.000000,0.000000,0.000000,0.000000,-0.586579,-9.847352,-0.538695,0.001332,-0.006395,-0.042368,29.110001,177.645920,998.370178
0.000000,0.000000,0.000000,0.000000,-0.404620,-9.840169,-0.459687,0.007194,-0.023182,-0.013057,29.110001,177.645920,998.370178
0.000000,0.000000,0.000000,0.000000,-0.153229,-9.830592,-0.526724,-0.012524,-0.024248,-0.010925,29.110001,177.645920,998.370178
0.000000,0.000000,0.000000,0.000000,0.035913,-9.868899,-0.332794,-0.003997,-0.007994,-0.048230,29.120001,177.655121,998.369080
0.000000,0.000000,0.000000,0.000000,-0.404620,-9.873688,-0.282516,0.014389,-0.015721,-0.039703,29.120001,177.655121,998.369080
0.000000,0.000000,0.000000,0.000000,-0.452504,-9.832987,-0.708684,0.007461,-0.018386,-0.031975,29.120001,177.655121,998.369080
0.000000,0.000000,0.000000,0.000000,-0.126893,-9.801862,-0.847547,-0.010658,-0.006395,-0.041035,29.120001,177.655121,998.369080
0.000000,0.000000,0.000000,0.000000,-0.282516,-9.828198,-0.373495,-0.015188,-0.020784,-0.038371,29.129999,177.631088,998.371948
0.000000,0.000000,0.000000,0.000000,-0.323217,-9.859323,-0.205901,0.006662,-0.017853,-0.037571,29.129999,177.631088,998.371948
0.000000,0.000000,0.000000,0.000000,-0.277727,-9.847352,-0.529119,0.004263,-0.012790,-0.031975,29.129999,177.631088,998.371948
0.000000,0.000000,0.000000,0.000000,-0.399832,-9.830592,-0.612916,0.001865,-0.014922,-0.035173,29.129999,177.631088,998.371948
0.000000,0.000000,0.000000,0.000000,-0.301669,-9.856929,-0.421380,-0.005063,-0.020784,-0.021850,29.129999,177.637741,998.371155
0.000000,0.000000,0.000000,0.000000,-0.081403,-9.818622,-0.521936,0.003997,-0.013323,-0.026113,29.129999,177.637741,998.371155
0.000000,0.000000,0.000000,0.000000,-0.100556,-9.777920,-0.955287,0.006129,-0.014655,-0.046631,29.129999,177.637741,998.371155
0.000000,0.000000,0.000000,0.000000,-0.335188,-9.816227,-0.780510,-0.009326,-0.012257,-0.044233,29.129999,177.637741,998.371155
0.000000,0.000000,0.000000,0.000000,-0.356736,-9.854534,-0.483629,-0.010392,-0.021317,-0.025580,29.139999,177.630569,998.372009
0.000000,0.000000,0.000000,0.000000,-0.131681,-9.849746,-0.378284,-0.001599,-0.018386,-0.026913,29.139999,177.630569,998.372009
0.000000,0.000000,0.000000,0.000000,-0.378284,-9.811439,-0.603339,0.010658,-0.010126,-0.045832,29.139999,177.630569,998.372009
0.000000,0.000000,0.000000,0.000000,-0.679953,-9.821015,-0.811634,-0.005596,-0.018386,-0.031709,29.139999,177.630569,998.372009
0.000000,0.000000,0.000000,0.000000,-0.440533,-9.873688,-0.483629,-0.019985,-0.025047,-0.011991,29.150000,177.678650,998.366272
0.000000,0.000000,0.000000,0.000000,-0.057461,-9.830592,-0.486023,-0.003198,-0.026646,-0.018919,29.150000,177.678650,998.366272
0.000000,0.000000,0.000000,0.000000,0.076614,-9.861717,-0.486023,0.003464,-0.014655,-0.033574,29.150000,177.678650,998.366272
0.000000,0.000000,0.000000,0.000000,-0.323217,-9.837775,-0.469264,0.007727,-0.006129,-0.062885,29.150000,177.678650,998.366272
0.000000,0.000000,0.000000,0.000000,-0.526724,-9.842564,-0.469264,-0.001599,-0.012524,-0.035972,29.160000,177.668427,998.367493
0.000000,0.000000,0.000000,0.000000,-0.344765,-9.859323,-0.562637,-0.005329,-0.016787,-0.018119,29.160000,177.668427,998.367493
0.000000,0.000000,0.000000,0.000000,-0.213084,-9.825804,-0.577003,-0.001599,-0.024781,-0.017587,29.160000,177.668427,998.367493
0.000000,0.000000,0.000000,0.000000,-0.019154,-9.837775,-0.524330,-0.006129,-0.013323,-0.030377,29.160000,177.668427,998.367493
0.000000,0.000000,0.000000,0.000000,-0.251391,-9.840169,-0.536301,-0.001865,-0.003730,-0.048230,29.170000,177.675583,998.366638
0.000000,0.000000,0.000000,0.000000,-0.519542,-9.849746,-0.598550,0.002931,-0.021317,-0.024781,29.170000,177.675583,998.366638
0.000000,0.000000,0.000000,0.000000,-0.227449,-9.837775,-0.579397,-0.009326,-0.025580,-0.013590,29.170000,177.675583,998.366638
0.000000,0.000000,0.000000,0.000000,-0.160412,-9.821015,-0.399832,-0.012524,-0.021051,-0.025314,29.170000,177.675583,998.366638
0.000000,0.000000,0.000000,0.000000,-0.131681,-9.876082,-0.071826,-0.002665,-0.016254,-0.030910,29.180000,177.697067,998.364075
0.000000,0.000000,0.000000,0.000000,-0.213084,-9.732430,-1.029507,0.008260,0.009593,-0.036505,29.180000,177.689392,998.364990
0.000000,0.000000,0.000000,0.000000,-0.332794,-9.816227,-0.450110,-0.008793,-0.007461,-0.019185,29.180000,177.689392,998.364990
0.000000,0.000000,0.000000,0.000000,-0.105345,-9.859323,-0.438139,-0.003997,-0.014389,-0.032508,29.180000,177.689392,998.364990
0.000000,0.000000,0.000000,0.000000,-0.268151,-9.813833,-0.500388,0.005329,-0.015721,-0.042101,29.190001,177.726227,998.360596
0.000000,0.000000,0.000000,0.000000,-0.299275,-9.849746,-0.478840,-0.001066,-0.006928,-0.035173,29.190001,177.726227,998.360596
0.000000,0.000000,0.000000,0.000000,-0.270545,-9.830592,-0.538695,-0.001865,0.056490,-0.032775,29.190001,177.726227,998.360596
0.000000,0.000000,0.000000,0.000000,-0.181959,-9.885659,-0.363919,0.001332,-0.009593,-0.037838,29.190001,177.726227,998.360596
0.000000,0.000000,0.000000,0.000000,-0.691924,-9.849746,-0.416591,0.008527,-0.012524,-0.033841,29.200001,177.718048,998.361572
0.000000,0.000000,0.000000,0.000000,-0.380678,-9.835381,-0.620098,0.005862,-0.012257,-0.031975,29.200001,177.718048,998.361572
0.000000,0.000000,0.000000,0.000000,-0.203507,-9.859323,-0.450110,-0.003198,-0.006395,-0.041302,29.200001,177.718048,998.361572
0.000000,0.000000,0.000000,0.000000,-0.574608,-9.876082,-0.411803,0.005862,-0.023182,-0.041035,29.200001,177.718048,998.361572
0.000000,0.000000,0.000000,0.000000,-0.392649,-9.789890,-0.691924,0.001066,-0.010658,-0.034640,29.200001,177.727249,998.360474
0.000000,0.000000,0.000000,0.000000,-0.232238,-9.828198,-0.593762,0.004263,0.083669,-0.050628,29.200001,177.727249,998.360474
0.000000,0.000000,0.000000,0.000000,-0.325611,-9.811439,-0.852336,0.001865,0.147087,-0.061286,29.200001,177.727249,998.360474
0.000000,0.000000,0.000000,0.000000,-0.100556,-9.902418,-0.560243,-0.017853,-0.031975,0.009326,29.209999,177.734924,998.359558
0.000000,0.000000,0.000000,0.000000,-0.943315,-9.811439,-0.316035,-0.003198,-0.012257,-0.018652,29.209999,177.734924,998.359558
0.000000,0.000000,0.000000,0.000000,-0.347159,-9.804255,-0.811634,-0.008793,-0.024515,-0.009593,29.209999,177.734924,998.359558
0.000000,0.000000,0.000000,0.000000,0.390255,-9.847352,-0.462081,-0.003730,-0.027712,-0.062086,29.209999,177.734924,998.359558
0.000000,0.000000,0.000000,0.000000,-0.577003,-9.859323,-0.287304,0.003198,-0.007461,-0.053026,29.219999,177.713943,998.362061
0.000000,0.000000,0.000000,0.000000,-0.711078,-9.842564,-0.675165,0.010925,-0.014389,-0.033041,29.219999,177.713943,998.362061
0.000000,0.000000,0.000000,0.000000,-0.134075,-9.828198,-0.763750,-0.001332,-0.023182,-0.025580,29.219999,177.713943,998.362061
0.000000,0.000000,0.000000,0.000000,-0.158017,-9.849746,-0.438139,-0.013323,-0.018652,-0.030110,29.219999,177.713943,998.362061
0.000000,0.000000,0.000000,0.000000,-0.237026,-9.854534,-0.232238,0.002132,-0.009859,-0.050095,29.219999,177.706787,998.362915
0.000000,0.000000,0.000000,0.000000,-0.356736,-9.840169,-0.536301,0.010126,-0.019452,-0.024515,29.219999,177.706787,998.362915
0.000000,0.000000,0.000000,0.000000,-0.366313,-9.825804,-0.782904,0.000266,-0.018652,-0.031443,29.219999,177.706787,998.362915
0.000000,0.000000,0.000000,0.000000,-0.308852,-9.840169,-0.509965,-0.013323,-0.011191,-0.045565,29.219999,177.706787,998.362915
0.000000,0.000000,0.000000,0.000000,-0.483629,-9.852140,-0.411803,-0.005596,-0.021583,-0.019185,29.230000,177.733902,998.359680
0.000000,0.000000,0.000000,0.000000,-0.375890,-9.842564,-0.517148,0.010126,-0.019452,-0.027179,29.230000,177.733902,998.359680
0.000000,0.000000,0.000000,0.000000,-0.002394,-9.825804,-0.608127,-0.001599,-0.014123,-0.038371,29.230000,177.733902,998.359680
0.000000,0.000000,0.000000,0.000000,-0.380678,-9.847352,-0.581791,-0.006662,-0.011991,-0.042900,29.230000,177.733902,998.359680
0.000000,0.000000,0.000000,0.000000,-0.615310,-9.847352,-0.397437,0.002931,-0.012790,-0.040236,29.230000,177.741577,998.358765
0.000000,0.000000,0.000000,0.000000,-0.275333,-9.859323,-0.488417,-0.001066,-0.024515,-0.016254,29.230000,177.741577,998.358765
0.000000,0.000000,0.000000,0.000000,-0.141258,-9.828198,-0.632069,-0.002931,-0.020784,-0.025047,29.230000,177.741577,998.358765
0.000000,0.000000,0.000000,0.000000,-0.081403,-9.849746,-0.368707,-0.001066,-0.010392,-0.045832,29.230000,177.741577,998.358765
0.000000,0.000000,0.000000,0.000000,-0.198719,-9.854534,-0.416591,-0.000799,-0.013323,-0.043167,29.240000,177.706284,998.362976
0.000000,0.000000,0.000000,0.000000,-0.423774,-9.832987,-0.596156,0.005596,-0.011191,-0.041035,29.240000,177.706284,998.362976
0.000000,0.000000,0.000000,0.000000,-0.308852,-9.840169,-0.486023,-0.001066,-0.029044,-0.028511,29.240000,177.706284,998.362976
0.000000,0.000000,0.000000,0.000000,-0.517148,-9.892841,-0.201113,-0.010925,-0.013057,-0.042634,29.240000,177.706284,998.362976
0.000000,0.000000,0.000000,0.000000,-0.660800,-9.885659,-0.421380,-0.002398,0.003464,-0.062619,29.240000,177.727249,998.360474
0.000000,0.000000,0.000000,0.000000,-0.452504,-9.842564,-0.653617,-0.008260,-0.022116,-0.037571,29.240000,177.727249,998.360474
0.000000,0.000000,0.000000,0.000000,-0.404620,-9.794679,-0.735020,-0.006928,-0.014389,-0.032242,29.240000,177.727249,998.360474
0.000000,0.000000,0.000000,0.000000,-0.213084,-9.763555,-0.859518,-0.025847,-0.009859,-0.053825,29.240000,177.727249,998.360474
0.000000,0.000000,0.000000,0.000000,-0.440533,-9.832987,-0.524330,-0.005862,-0.022916,-0.039703,29.250000,177.722641,998.361023
0.000000,0.000000,0.000000,0.000000,-0.418985,-9.801862,-0.318429,0.030377,-0.007194,-0.018386,29.250000,177.722641,998.361023
0.000000,0.000000,0.000000,0.000000,-0.225055,-9.854534,-0.414197,-0.004530,-0.010658,-0.044499,29.250000,177.722641,998.361023
0.000000,0.000000,0.000000,0.000000,-0.371101,-9.806650,-0.632069,-0.010126,-0.016521,-0.027712,29.250000,177.722641,998.361023
0.000000,0.000000,0.000000,0.000000,-0.500388,-9.854534,-0.462081,0.013323,-0.017054,-0.030910,29.260000,177.732361,998.359863
0.000000,0.000000,0.000000,0.000000,-0.304064,-9.880871,-0.265756,-0.000266,-0.014922,-0.026113,29.260000,177.732361,998.359863
0.000000,0.000000,0.000000,0.000000,-0.193930,-9.864111,-0.450110,-0.011458,-0.017853,-0.024248,29.260000,177.732361,998.359863
0.000000,0.000000,0.000000,0.000000,-0.098162,-9.830592,-0.366313,0.014655,-0.014922,-0.034374,29.260000,177.732361,998.359863
0.000000,0.000000,0.000000,0.000000,-0.260968,-9.888053,-0.435745,0.016254,-0.023182,-0.041035,29.260000,177.726730,998.360535
0.000000,0.000000,0.000000,0.000000,-0.277727,-9.816227,-0.701501,-0.013590,-0.015721,-0.035440,29.260000,177.726730,998.360535
0.000000,0.000000,0.000000,0.000000,-0.395043,-9.830592,-0.634463,-0.007994,-0.009593,-0.017587,29.260000,177.726730,998.360535
0.000000,0.000000,0.000000,0.000000,-0.330400,-9.885659,-0.325611,0.002931,-0.021850,-0.034907,29.260000,177.726730,998.360535
0.000000,0.000000,0.000000,0.000000,-0.222661,-9.847352,-0.378284,-0.004530,-0.018386,-0.033308,29.270000,177.736969,998.359314
0.000000,0.000000,0.000000,0.000000,-0.239420,-9.847352,-0.598550,0.009326,-0.011191,-0.040502,29.270000,177.736969,998.359314
0.000000,0.000000,0.000000,0.000000,-0.474052,-9.849746,-0.588974,0.002398,-0.012257,-0.036239,29.270000,177.736969,998.359314
0.000000,0.000000,0.000000,0.000000,-0.414197,-9.844957,-0.509965,-0.016787,-0.014922,-0.026113,29.270000,177.736969,998.359314
0.000000,0.000000,0.000000,0.000000,-0.220267,-9.852140,-0.395043,0.001599,-0.023449,-0.023715,29.270000,177.730316,998.360107
0.000000,0.000000,0.000000,0.000000,-0.217872,-9.859323,-0.383072,0.006662,-0.014389,-0.039703,29.270000,177.730316,998.360107
0.000000,0.000000,0.000000,0.000000,-0.308852,-9.847352,-0.481235,-0.003730,-0.009060,-0.048496,29.270000,177.730316,998.360107
0.000000,0.000000,0.000000,0.000000,-0.529119,-9.840169,-0.495600,0.001066,-0.014922,-0.034374,29.270000,177.730316,998.360107
0.000000,0.000000,0.000000,0.000000,-0.529119,-9.859323,-0.445322,0.001332,-0.019185,-0.028778,29.280001,177.726730,998.360535
0.000000,0.000000,0.000000,0.000000,-0.162806,-9.837775,-0.521936,-0.006662,-0.021317,-0.026646,29.280001,177.726730,998.360535
0.000000,0.000000,0.000000,0.000000,-0.445322,-9.825804,-0.478840,0.006129,-0.003730,-0.045032,29.280001,177.726730,998.360535
0.000000,0.000000,0.000000,0.000000,-0.330400,-9.809045,-0.572214,-0.001865,-0.015455,-0.027712,29.280001,177.705261,998.363098
0.000000,0.000000,0.000000,0.000000,-0.201113,-9.744401,-0.893037,-0.020251,-0.024781,-0.038904,29.280001,177.705261,998.363098
0.000000,0.000000,0.000000,0.000000,-0.090980,-9.806650,-0.699107,-0.012524,-0.002931,-0.035706,29.290001,177.715485,998.361877
0.000000,0.000000,0.000000,0.000000,-0.351948,-9.864111,-0.260968,-0.009060,-0.033041,-0.047963,29.290001,177.715485,998.361877
0.000000,0.000000,0.000000,0.000000,-0.320823,-9.832987,-0.234632,0.007461,-0.043167,-0.030910,29.290001,177.715485,998.361877
0.000000,0.000000,0.000000,0.000000,-0.148441,-9.718064,-1.211466,-0.016254,-0.014123,-0.053026,29.290001,177.715485,998.361877
0.000000,0.000000,0.000000,0.000000,-0.316035,-9.842564,-0.550666,0.003730,-0.015455,-0.043433,29.290001,177.708832,998.362671
0.000000,0.000000,0.000000,0.000000,-0.430956,-9.847352,0.098162,-0.000266,-0.035440,-0.018386,29.290001,177.708832,998.362671
0.000000,0.000000,0.000000,0.000000,-0.198719,-9.828198,-0.339977,0.005596,-0.019452,-0.041835,29.290001,177.708832,998.362671
0.000000,0.000000,0.000000,0.000000,-0.067038,-9.842564,-0.660800,0.008527,-0.015721,-0.037838,29.290001,177.708832,998.362671
0.000000,0.000000,0.000000,0.000000,-0.234632,-9.835381,-0.608127,0.000000,-0.014123,-0.048763,29.299999,177.705261,998.363098
0.000000,0.000000,0.000000,0.000000,-0.229843,-9.787497,-0.660800,-0.001066,-0.017320,-0.046631,29.299999,177.705261,998.363098
0.000000,0.000000,0.000000,0.000000,-0.478840,-9.844957,-0.483629,0.000000,-0.011191,-0.039703,29.299999,177.705261,998.363098
0.000000,0.000000,0.000000,0.000000,-0.339977,-9.837775,-0.533907,-0.002398,-0.016254,-0.035706,29.299999,177.705261,998.363098
0.000000,0.000000,0.000000,0.000000,-0.263362,-9.837775,-0.605733,-0.005596,-0.013856,-0.040502,29.309999,177.669449,998.367371
0.000000,0.000000,0.000000,0.000000,-0.320823,-9.837775,-0.351948,-0.004796,-0.023982,-0.027179,29.309999,177.669449,998.367371
0.000000,0.000000,0.000000,0.000000,-0.229843,-9.837775,-0.469264,0.024781,-0.018919,-0.045032,29.309999,177.669449,998.367371
0.000000,0.000000,0.000000,0.000000,-0.270545,-9.840169,-0.689530,0.012524,-0.020784,-0.029311,29.309999,177.669449,998.367371
0.000000,0.000000,0.000000,0.000000,-0.339977,-9.828198,-0.615310,-0.014922,-0.015721,-0.015721,29.309999,177.694000,998.364441
0.000000,0.000000,0.000000,0.000000,-0.342371,-9.859323,-0.299275,0.005862,-0.017054,-0.035440,29.309999,177.694000,998.364441
0.000000,0.000000,0.000000,0.000000,-0.169988,-9.844957,-0.603339,-0.000799,-0.016787,-0.031975,29.309999,177.694000,998.364441
0.000000,0.000000,0.000000,0.000000,-0.251391,-9.828198,-0.763750,0.003198,-0.013323,-0.041302,29.309999,177.694000,998.364441
0.000000,0.000000,0.000000,0.000000,-0.385466,-9.842564,-0.366313,-0.011458,-0.015721,-0.039170,29.320000,177.672516,998.367004
0.000000,0.000000,0.000000,0.000000,-0.320823,-9.852140,-0.418985,-0.000533,-0.018119,-0.030377,29.320000,177.672516,998.367004
0.000000,0.000000,0.000000,0.000000,-0.342371,-9.832987,-0.474052,0.011191,-0.013323,-0.038637,29.320000,177.672516,998.367004
0.000000,0.000000,0.000000,0.000000,-0.402226,-9.866506,-0.567426,-0.007461,-0.013323,-0.042900,29.320000,177.694519,998.367004
0.000000,0.000000,0.000000,0.000000,-0.418985,-9.809045,-0.627281,-0.010658,-0.018119,-0.031709,29.320000,177.694519,998.364380
0.000000,0.000000,0.000000,0.000000,-0.222661,-9.854534,-0.404620,0.002665,-0.021850,-0.025314,29.320000,177.694519,998.364380
0.000000,0.000000,0.000000,0.000000,-0.105345,-9.854534,-0.378284,-0.004263,-0.012790,-0.036239,29.320000,177.694519,998.364380
0.000000,0.000000,0.000000,0.000000,-0.316035,-9.830592,-0.543484,0.001332,-0.013590,-0.044766,29.330000,177.690414,998.364868
0.000000,0.000000,0.000000,0.000000,-0.524330,-9.842564,-0.378284,0.006129,-0.011724,-0.030377,29.330000,177.690414,998.364868
0.000000,0.000000,0.000000,0.000000,-0.179565,-9.787497,-0.730232,0.006129,-0.024781,-0.024248,29.330000,177.690414,998.364868
0.000000,0.000000,0.000000,0.000000,-0.256180,-9.818622,-0.694318,-0.010392,-0.019718,-0.003464,29.330000,177.690414,998.364868
0.000000,0.000000,0.000000,0.000000,-0.332794,-9.847352,-0.442927,-0.018386,-0.013323,-0.029044,29.340000,177.683258,998.365723
0.000000,0.000000,0.000000,0.000000,-0.670376,-9.952697,-0.375890,0.016254,0.008527,-0.038637,29.340000,177.683258,998.365723
0.000000,0.000000,0.000000,0.000000,-0.572214,-9.787497,-0.744597,-0.003730,-0.033308,-0.009060,29.340000,177.683258,998.365723
0.000000,0.000000,0.000000,0.000000,0.093374,-9.840169,-0.584185,-0.001865,-0.032508,-0.028778,29.340000,177.683258,998.365723
0.000000,0.000000,0.000000,0.000000,0.031125,-9.823410,-0.663194,-0.011458,-0.007461,-0.063951,29.340000,177.678650,998.366272
0.000000,0.000000,0.000000,0.000000,-0.723049,-9.876082,-0.375890,-0.001865,-0.013856,-0.040236,29.340000,177.678650,998.366272
0.000000,0.000000,0.000000,0.000000,-0.550666,-9.856929,-0.304064,-0.001599,-0.017853,-0.031709,29.340000,177.678650,998.366272
0.000000,0.000000,0.000000,0.000000,0.062249,-9.861717,-0.579397,0.006662,-0.022383,-0.020518,29.340000,177.678650,998.366272
0.000000,0.000000,0.000000,0.000000,-0.174777,-9.816227,-0.653617,0.007194,-0.013057,-0.030643,29.350000,177.703720,998.363281
0.000000,0.000000,0.000000,0.000000,-0.466869,-9.866506,-0.330400,-0.008793,-0.005596,-0.049029,29.350000,177.703720,998.363281
0.000000,0.000000,0.000000,0.000000,-0.720655,-9.852140,-0.196325,-0.006129,-0.016521,-0.026380,29.350000,177.703720,998.363281
0.000000,0.000000,0.000000,0.000000,-0.569820,-9.832987,-0.519542,0.007994,-0.012790,-0.020784,29.350000,177.703720,998.363281
0.000000,0.000000,0.000000,0.000000,-0.016759,-9.830592,-0.727837,-0.012257,-0.025047,-0.027446,29.350000,177.696564,998.364136
0.000000,0.000000,0.000000,0.000000,0.038307,-9.847352,-0.557849,-0.026646,-0.014123,-0.053026,29.350000,177.696564,998.364136
0.000000,0.000000,0.000000,0.000000,-0.462081,-9.878476,-0.174777,0.014655,-0.012790,-0.048496,29.350000,177.696564,998.364136
0.000000,0.000000,0.000000,0.000000,-0.636858,-9.847352,-0.435745,0.009859,-0.015988,-0.037038,29.350000,177.696564,998.364136
0.000000,0.000000,0.000000,0.000000,-0.359130,-9.823410,-0.902614,-0.013590,-0.020251,-0.024248,29.360001,177.686844,998.365295
0.000000,0.000000,0.000000,0.000000,-0.090980,-9.840169,-0.457293,-0.008793,-0.019185,-0.025847,29.360001,177.686844,998.365295
0.000000,0.000000,0.000000,0.000000,-0.215478,-9.864111,-0.107739,-0.003464,-0.014655,-0.040502,29.360001,177.686844,998.365295
0.000000,0.000000,0.000000,0.000000,-0.304064,-9.835381,-0.569820,0.007194,-0.010925,-0.045832,29.360001,177.686844,998.365295
0.000000,0.000000,0.000000,0.000000,-0.392649,-9.825804,-0.749385,0.011458,-0.016787,-0.032775,29.370001,177.727753,998.360413
0.000000,0.000000,0.000000,0.000000,-0.390255,-9.823410,-0.543484,-0.016787,-0.018652,-0.028511,29.370001,177.727753,998.360413
0.000000,0.000000,0.000000,0.000000,-0.301669,-9.861717,-0.361524,-0.007994,-0.017587,-0.032508,29.370001,177.727753,998.360413
0.000000,0.000000,0.000000,0.000000,-0.311246,-9.842564,-0.323217,0.012790,-0.018119,-0.030110,29.370001,177.727753,998.360413
0.000000,0.000000,0.000000,0.000000,-0.368707,-9.830592,-0.644040,0.002931,-0.013323,-0.039703,29.370001,177.734924,998.359558
0.000000,0.000000,0.000000,0.000000,-0.354342,-9.821015,-0.754174,-0.009859,-0.015455,-0.035706,29.370001,177.734924,998.359558
0.000000,0.000000,0.000000,0.000000,-0.531513,-9.856929,-0.342371,-0.016521,-0.022116,-0.031443,29.370001,177.734924,998.359558
0.000000,0.000000,0.000000,0.000000,-0.371101,-9.849746,-0.330400,0.003198,-0.015721,-0.034107,29.370001,177.734924,998.359558
0.000000,0.000000,0.000000,0.000000,-0.198719,-9.818622,-0.715866,0.010658,-0.020784,-0.029311,29.379999,177.771240,998.355286
0.000000,0.000000,0.000000,0.000000,-0.337582,-9.842564,-0.474052,-0.015988,-0.004796,-0.051960,29.379999,177.771240,998.355286
0.000000,0.000000,0.000000,0.000000,-0.658405,-9.914390,-0.141258,0.027979,-0.009859,-0.031443,29.389999,177.792206,998.352783
0.000000,0.000000,0.000000,0.000000,-0.289698,-9.835381,-0.739808,-0.003730,-0.019185,-0.021583,29.389999,177.792206,998.352783
0.000000,0.000000,0.000000,0.000000,-0.160412,-9.804255,-0.895431,-0.012257,-0.012524,-0.039170,29.389999,177.792206,998.352783
0.000000,0.000000,0.000000,0.000000,-0.172383,-9.883265,-0.227449,-0.009593,-0.018119,-0.040502,29.389999,177.792206,998.352783
0.000000,0.000000,0.000000,0.000000,-0.292093,-9.847352,-0.217872,0.003198,-0.014123,-0.038637,29.389999,177.814209,998.350159
0.000000,0.000000,0.000000,0.000000,-0.366313,-9.832987,-0.696713,0.016787,-0.013590,-0.038104,29.389999,177.814209,998.350159
0.000000,0.000000,0.000000,0.000000,-0.280122,-9.828198,-0.751779,-0.002931,-0.015188,-0.032775,29.389999,177.814209,998.350159
0.000000,0.000000,0.000000,0.000000,-0.280122,-9.866506,-0.359130,-0.028511,-0.020784,-0.050361,29.400000,177.795273,998.352417
0.000000,0.000000,0.000000,0.000000,-0.208296,-9.861717,-0.335188,0.000533,-0.008793,-0.068747,29.400000,177.795273,998.352417
0.000000,0.000000,0.000000,0.000000,-0.347159,-9.842564,-0.610521,0.012257,-0.012790,-0.038104,29.400000,177.795273,998.352417
0.000000,0.000000,0.000000,0.000000,-0.433351,-9.785102,-0.809240,-0.009060,-0.010392,-0.029311,29.400000,177.795273,998.352417
0.000000,0.000000,0.000000,0.000000,-0.225055,-9.837775,-0.605733,-0.007461,-0.011991,-0.044499,29.400000,177.805511,998.351196
0.000000,0.000000,0.000000,0.000000,-0.201113,-9.897630,-0.023942,-0.007461,0.004796,-0.028778,29.400000,177.805511,998.351196
0.000000,0.000000,0.000000,0.000000,-0.531513,-9.895236,-0.514753,0.006928,-0.030910,-0.025314,29.400000,177.805511,998.351196
0.000000,0.000000,0.000000,0.000000,-0.531513,-9.847352,-0.560243,0.020251,-0.007994,-0.031176,29.400000,177.805511,998.351196
0.000000,0.000000,0.000000,0.000000,-0.179565,-9.849746,-0.126893,0.014655,-0.024248,-0.031176,29.410000,177.785553,998.353577
0.000000,0.000000,0.000000,0.000000,-0.074220,-9.818622,-0.529119,-0.008793,-0.026646,-0.028511,29.410000,177.785553,998.353577
0.000000,0.000000,0.000000,0.000000,-0.277727,-9.825804,-0.761356,0.006928,-0.007994,-0.047164,29.410000,177.785553,998.353577
0.000000,0.000000,0.000000,0.000000,-0.495600,-9.885659,-0.301669,0.001332,-0.015721,-0.037038,29.410000,177.785553,998.353577
0.000000,0.000000,0.000000,0.000000,-0.409408,-9.880871,-0.342371,-0.010126,-0.018119,-0.029577,29.410000,177.767151,998.355774
0.000000,0.000000,0.000000,0.000000,-0.220267,-9.849746,-0.651223,0.010925,-0.011991,-0.037571,29.410000,177.767151,998.355774
0.000000,0.000000,0.000000,0.000000,-0.184354,-9.847352,-0.509965,0.000000,-0.018652,-0.029311,29.410000,177.767151,998.355774
0.000000,0.000000,0.000000,0.000000,-0.481235,-9.859323,-0.567426,-0.017054,-0.014922,-0.036505,29.410000,177.767151,998.355774
0.000000,0.000000,0.000000,0.000000,-0.356736,-9.854534,-0.462081,0.006395,-0.018119,-0.035173,29.420000,177.760498,998.356567
0.000000,0.000000,0.000000,0.000000,-0.402226,-9.859323,-0.445322,-0.008260,-0.019718,-0.014123,29.420000,177.760498,998.356567
0.000000,0.000000,0.000000,0.000000,-0.090980,-9.823410,-0.392649,-0.024781,-0.049296,-0.025314,29.420000,177.760498,998.356567
0.000000,0.000000,0.000000,0.000000,-0.088585,-9.876082,-0.150835,-0.005596,0.010925,-0.099923,29.420000,177.760498,998.356567
0.000000,0.000000,0.000000,0.000000,-0.567426,-9.844957,-0.553061,0.019452,-0.029577,-0.058888,29.420000,177.756409,998.357056
0.000000,0.000000,0.000000,0.000000,-0.220267,-9.799467,-0.900220,-0.019985,-0.006129,-0.032508,29.420000,177.756409,998.357056
0.000000,0.000000,0.000000,0.000000,-0.074220,-9.847352,-0.407014,-0.002665,-0.017587,-0.023182,29.420000,177.756409,998.357056
0.000000,0.000000,0.000000,0.000000,-0.114922,-9.861717,-0.260968,-0.002665,-0.015455,-0.027979,29.420000,177.756409,998.357056
0.000000,0.000000,0.000000,0.000000,-0.600945,-9.938332,-0.790087,-0.019985,-0.000799,-0.035972,29.430000,177.769699,998.355469
0.000000,0.000000,0.000000,0.000000,-0.169988,-9.828198,-0.428562,0.009593,-0.024781,-0.033041,29.430000,177.769699,998.355469
0.000000,0.000000,0.000000,0.000000,-0.028730,-9.849746,-0.447716,0.030110,-0.021051,-0.031709,29.430000,177.769699,998.355469
0.000000,0.000000,0.000000,0.000000,-0.610521,-9.818622,-0.730232,-0.013323,-0.005329,-0.040502,29.430000,177.769699,998.355469
0.000000,0.000000,0.000000,0.000000,-0.536301,-9.806650,-0.588974,-0.015188,-0.016787,-0.024781,29.430000,177.750259,998.357788
0.000000,0.000000,0.000000,0.000000,-0.246603,-9.859323,-0.339977,0.003730,-0.025847,-0.014655,29.430000,177.750259,998.357788
0.000000,0.000000,0.000000,0.000000,-0.114922,-9.859323,-0.409408,-0.004263,-0.017054,-0.036772,29.430000,177.750259,998.357788
0.000000,0.000000,0.000000,0.000000,-0.222661,-9.821015,-0.665588,0.002931,-0.005063,-0.052760,29.430000,177.750259,998.357788
0.000000,0.000000,0.000000,0.000000,-0.502782,-9.852140,-0.505177,-0.000266,-0.018119,-0.033041,29.440001,177.731339,998.359985
0.000000,0.000000,0.000000,0.000000,-0.426168,-9.842564,-0.447716,-0.007994,-0.020518,-0.025047,29.440001,177.731339,998.359985
0.000000,0.000000,0.000000,0.000000,-0.100556,-9.835381,-0.493206,0.000266,-0.017320,-0.029577,29.440001,177.731339,998.359985
0.000000,0.000000,0.000000,0.000000,-0.325611,-9.844957,-0.543484,0.002931,-0.014655,-0.035440,29.440001,177.731339,998.359985
0.000000,0.000000,0.000000,0.000000,-0.430956,-9.849746,-0.574608,-0.006662,-0.016254,-0.033574,29.440001,177.724686,998.360779
0.000000,0.000000,0.000000,0.000000,-0.172383,-9.832987,-0.524330,-0.001599,-0.021850,-0.020784,29.440001,177.724686,998.360779
0.000000,0.000000,0.000000,0.000000,-0.141258,-9.856929,-0.404620,0.000799,-0.017054,-0.032242,29.440001,177.724686,998.360779
0.000000,0.000000,0.000000,0.000000,-0.225055,-9.847352,-0.464475,0.000000,-0.006928,-0.053825,29.440001,177.724686,998.360779
0.000000,0.000000,0.000000,0.000000,-0.399832,-9.844957,-0.557849,0.002931,-0.016254,-0.034374,29.450001,177.720596,998.361267
0.000000,0.000000,0.000000,0.000000,-0.423774,-9.847352,-0.538695,0.000000,-0.019452,-0.027179,29.450001,177.720596,998.361267
0.000000,0.000000,0.000000,0.000000,-0.205901,-9.840169,-0.526724,-0.005596,-0.016787,-0.035706,29.450001,177.720596,998.361267
0.000000,0.000000,0.000000,0.000000,-0.215478,-9.842564,-0.457293,-0.000266,-0.014922,-0.033574,29.450001,177.720596,998.361267
0.000000,0.000000,0.000000,0.000000,-0.399832,-9.844957,-0.478840,0.002931,-0.009859,-0.042634,29.450001,177.745667,998.358276
0.000000,0.000000,0.000000,0.000000,-0.407014,-9.854534,-0.577003,0.000266,-0.013323,-0.038104,29.450001,177.745667,998.358276
0.000000,0.000000,0.000000,0.000000,-0.474052,-9.849746,-0.586579,0.000799,-0.018919,-0.027179,29.450001,177.745667,998.358276
0.000000,0.000000,0.000000,0.000000,-0.304064,-9.847352,-0.497994,-0.003464,-0.020784,-0.026913,29.450001,177.729813,998.353210
0.000000,0.000000,0.000000,0.000000,-0.110133,-9.835381,-0.442927,-0.005329,-0.019185,-0.029844,29.450001,177.729813,998.360168
0.000000,0.000000,0.000000,0.000000,-0.225055,-9.842564,-0.440533,0.005329,-0.012257,-0.038371,29.450001,177.729813,998.360168
0.000000,0.000000,0.000000,0.000000,-0.301669,-9.825804,-0.560243,0.001865,-0.012790,-0.038904,29.450001,177.729813,998.360168
0.000000,0.000000,0.000000,0.000000,-0.318429,-9.818622,-0.687136,-0.003730,-0.018652,-0.026646,29.459999,177.723160,998.360962
0.000000,0.000000,0.000000,0.000000,-0.251391,-9.849746,-0.471658,-0.004530,-0.017320,-0.033308,29.459999,177.723160,998.360962
0.000000,0.000000,0.000000,0.000000,-0.227449,-9.856929,-0.306458,-0.003997,-0.014655,-0.040502,29.459999,177.723160,998.360962
0.000000,0.000000,0.000000,0.000000,-0.332794,-9.849746,-0.483629,0.005862,-0.015188,-0.036505,29.459999,177.723160,998.360962
0.000000,0.000000,0.000000,0.000000,-0.169988,-9.821015,-0.632069,-0.012257,-0.018919,-0.025847,29.459999,177.705765,998.363037
0.000000,0.000000,0.000000,0.000000,-0.533907,-9.859323,-0.205901,0.010126,-0.013057,-0.041835,29.459999,177.705765,998.363037
0.000000,0.000000,0.000000,0.000000,-0.581791,-9.835381,-0.395043,0.008793,-0.017853,-0.025047,29.469999,177.713440,998.362122
0.000000,0.000000,0.000000,0.000000,-0.454898,-9.813833,-0.651223,0.007461,-0.019185,-0.021850,29.469999,177.713440,998.362122
0.000000,0.000000,0.000000,0.000000,-0.150835,-9.825804,-0.694318,-0.006395,-0.015988,-0.034107,29.469999,177.713440,998.362122
0.000000,0.000000,0.000000,0.000000,-0.308852,-9.847352,-0.418985,-0.014389,-0.012790,-0.042634,29.469999,177.713440,998.362122
0.000000,0.000000,0.000000,0.000000,-0.586579,-9.847352,-0.289698,0.003997,-0.013590,-0.041035,29.469999,177.708832,998.362671
0.000000,0.000000,0.000000,0.000000,-0.478840,-9.854534,-0.502782,0.009593,-0.019185,-0.022383,29.469999,177.708832,998.362671
0.000000,0.000000,0.000000,0.000000,-0.323217,-9.821015,-0.699107,-0.001066,-0.021850,-0.019718,29.469999,177.708832,998.362671
0.000000,0.000000,0.000000,0.000000,-0.095768,-9.844957,-0.598550,-0.008793,-0.017320,-0.031709,29.469999,177.708832,998.362671
0.000000,0.000000,0.000000,0.000000,-0.203507,-9.844957,-0.414197,-0.007194,-0.011458,-0.043966,29.480000,177.690414,998.364868
0.000000,0.000000,0.000000,0.000000,-0.368707,-9.847352,-0.351948,0.003730,-0.008793,-0.049029,29.480000,177.690414,998.364868
0.000000,0.000000,0.000000,0.000000,-0.246603,-9.842564,-0.452504,0.002665,-0.010126,-0.041302,29.480000,177.690414,998.364868
0.000000,0.000000,0.000000,0.000000,-0.263362,-9.847352,-0.562637,0.005063,-0.012524,-0.038904,29.480000,177.690414,998.364868
0.000000,0.000000,0.000000,0.000000,-0.162806,-9.832987,-0.627281,0.000799,-0.015188,-0.034107,29.480000,177.712921,998.362183
0.000000,0.000000,0.000000,0.000000,-0.014365,-9.840169,-0.610521,-0.006928,-0.021583,-0.025314,29.480000,177.712921,998.362183
0.000000,0.000000,0.000000,0.000000,-0.107739,-9.844957,-0.442927,-0.006129,-0.012524,-0.043700,29.480000,177.712921,998.362183
0.000000,0.000000,0.000000,0.000000,-0.323217,-9.856929,-0.325611,0.005063,-0.009326,-0.052227,29.490000,177.736969,998.359314
0.000000,0.000000,0.000000,0.000000,-0.550666,-9.816227,-0.560243,0.005063,-0.015188,-0.037038,29.490000,177.736969,998.359314
0.000000,0.000000,0.000000,0.000000,-0.488417,-9.818622,-0.641646,0.000000,-0.018386,-0.024248,29.490000,177.736969,998.359314
0.000000,0.000000,0.000000,0.000000,-0.143652,-9.844957,-0.550666,-0.006129,-0.022916,-0.019985,29.490000,177.736969,998.359314
0.000000,0.000000,0.000000,0.000000,-0.129287,-9.856929,-0.423774,-0.003198,-0.015455,-0.035173,29.500000,177.727249,998.360474
0.000000,0.000000,0.000000,0.000000,-0.330400,-9.849746,-0.409408,0.007461,-0.009593,-0.048230,29.500000,177.727249,998.360474
0.000000,0.000000,0.000000,0.000000,-0.471658,-9.828198,-0.569820,0.004263,-0.014922,-0.036505,29.500000,177.727249,998.360474
0.000000,0.000000,0.000000,0.000000,-0.366313,-9.828198,-0.682347,-0.003198,-0.019985,-0.027979,29.500000,177.727249,998.360474
0.000000,0.000000,0.000000,0.000000,-0.148441,-9.825804,-0.569820,-0.007461,-0.018119,-0.029844,29.500000,177.751801,998.357605
0.000000,0.000000,0.000000,0.000000,-0.222661,-9.873688,-0.387861,-0.005329,-0.013323,-0.040236,29.500000,177.751801,998.357605
0.000000,0.000000,0.000000,0.000000,-0.502782,-9.844957,-0.378284,0.007194,-0.009859,-0.043433,29.500000,177.751801,998.357605
0.000000,0.000000,0.000000,0.000000,-0.464475,-9.844957,-0.586579,0.007994,-0.020518,-0.023715,29.500000,177.751801,998.357605
0.000000,0.000000,0.000000,0.000000,-0.160412,-9.821015,-0.742203,-0.005329,-0.023182,-0.017853,29.510000,177.732361,998.359863
0.000000,0.000000,0.000000,0.000000,0.031125,-9.840169,-0.557849,-0.012524,-0.013856,-0.038371,29.510000,177.732361,998.359863
0.000000,0.000000,0.000000,0.000000,-0.165200,-9.842564,-0.275333,-0.005596,-0.007194,-0.053026,29.510000,177.732361,998.359863
0.000000,0.000000,0.000000,0.000000,-0.699107,-9.871294,-0.289698,0.005596,-0.008260,-0.050361,29.510000,177.732361,998.359863
0.000000,0.000000,0.000000,0.000000,-0.682347,-9.832987,-0.624887,0.005329,-0.017320,-0.030110,29.510000,177.740540,998.358887
0.000000,0.000000,0.000000,0.000000,-0.361524,-9.830592,-0.646434,-0.006662,-0.024248,-0.017054,29.510000,177.740540,998.358887
0.000000,0.000000,0.000000,0.000000,-0.146046,-9.852140,-0.442927,-0.008793,-0.020784,-0.025847,29.510000,177.740540,998.358887
0.000000,0.000000,0.000000,0.000000,-0.134075,-9.854534,-0.337582,-0.000266,-0.012524,-0.041302,29.510000,177.740540,998.358887
0.000000,0.000000,0.000000,0.000000,-0.383072,-9.825804,-0.502782,0.008527,-0.014123,-0.038104,29.520000,177.733902,998.359680
0.000000,0.000000,0.000000,0.000000,-0.464475,-9.825804,-0.610521,0.001599,-0.013323,-0.035173,29.520000,177.733902,998.359680
0.000000,0.000000,0.000000,0.000000,-0.375890,-9.825804,-0.586579,-0.009060,-0.018119,-0.031443,29.520000,177.733902,998.359680
0.000000,0.000000,0.000000,0.000000,-0.301669,-9.861717,-0.490811,-0.003198,-0.018386,-0.027179,29.520000,177.733902,998.359680
0.000000,0.000000,0.000000,0.000000,-0.210690,-9.847352,-0.385466,0.002398,-0.014922,-0.034640,29.530001,177.712418,998.362244
0.000000,0.000000,0.000000,0.000000,-0.208296,-9.852140,-0.517148,0.000799,-0.014922,-0.038371,29.530001,177.712418,998.362244
0.000000,0.000000,0.000000,0.000000,-0.351948,-9.849746,-0.598550,0.004796,-0.013590,-0.037305,29.530001,177.712418,998.362244
0.000000,0.000000,0.000000,0.000000,-0.390255,-9.849746,-0.514753,-0.004796,-0.015721,-0.035173,29.530001,177.712418,998.362244
0.000000,0.000000,0.000000,0.000000,-0.349553,-9.835381,-0.450110,-0.004530,-0.018119,-0.029044,29.530001,177.722137,998.361084
0.000000,0.000000,0.000000,0.000000,-0.227449,-9.847352,-0.486023,0.004796,-0.018119,-0.027446,29.530001,177.722137,998.361084
0.000000,0.000000,0.000000,0.000000,-0.119710,-9.864111,-0.519542,-0.003198,-0.011991,-0.041568,29.530001,177.722137,998.361084
0.000000,0.000000,0.000000,0.000000,-0.445322,-9.856929,-0.524330,-0.002931,-0.011991,-0.047164,29.530001,177.722137,998.361084
0.000000,0.000000,0.000000,0.000000,-0.627281,-9.861717,-0.399832,0.004796,-0.017320,-0.027712,29.540001,177.729813,998.360168
0.000000,0.000000,0.000000,0.000000,-0.220267,-9.825804,-0.541090,-0.003198,-0.024781,-0.015188,29.540001,177.729813,998.360168
0.000000,0.000000,0.000000,0.000000,0.110133,-9.818622,-0.699107,-0.004796,-0.017853,-0.029311,29.540001,177.729813,998.360168
0.000000,0.000000,0.000000,0.000000,-0.079009,-9.849746,-0.445322,-0.003464,-0.004263,-0.056224,29.540001,177.729813,998.360168
0.000000,0.000000,0.000000,0.000000,-0.687136,-9.856929,-0.339977,-0.000533,-0.009593,-0.053825,29.549999,177.722137,998.361084
0.000000,0.000000,0.000000,0.000000,-0.711078,-9.854534,-0.565032,0.005329,-0.021317,-0.017320,29.549999,177.722137,998.361084
0.000000,0.000000,0.000000,0.000000,-0.280122,-9.816227,-0.629675,0.000266,-0.028511,-0.009060,29.549999,177.722137,998.361084
0.000000,0.000000,0.000000,0.000000,0.126893,-9.835381,-0.572214,-0.015188,-0.019452,-0.032775,29.549999,177.722137,998.361084
0.000000,0.000000,0.000000,0.000000,-0.155623,-9.856929,-0.366313,-0.002398,-0.005063,-0.057556,29.549999,177.744125,998.358459
0.000000,0.000000,0.000000,0.000000,-0.651223,-9.840169,-0.347159,0.011991,-0.009859,-0.047697,29.549999,177.744125,998.358459
0.000000,0.000000,0.000000,0.000000,-0.706290,-9.821015,-0.677559,0.003198,-0.019718,-0.026913,29.549999,177.744125,998.358459
0.000000,0.000000,0.000000,0.000000,-0.359130,-9.813833,-0.770933,-0.005063,-0.022916,-0.018919,29.549999,177.744125,998.358459
0.000000,0.000000,0.000000,0.000000,-0.143652,-9.840169,-0.371101,-0.010925,-0.021850,-0.023715,29.559999,177.737991,998.359192
0.000000,0.000000,0.000000,0.000000,-0.184354,-9.856929,-0.263362,-0.003464,-0.013590,-0.043167,29.559999,177.737991,998.359192
0.000000,0.000000,0.000000,0.000000,-0.296881,-9.835381,-0.481235,0.011458,-0.012524,-0.039969,29.559999,177.737991,998.359192
0.000000,0.000000,0.000000,0.000000,-0.287304,-9.849746,-0.361524,-0.003198,-0.014655,-0.038371,29.570000,177.718048,998.361572
0.000000,0.000000,0.000000,0.000000,-0.258574,-9.806650,-0.648829,-0.008260,-0.022383,-0.021583,29.570000,177.718048,998.361572
0.000000,0.000000,0.000000,0.000000,-0.014365,-9.837775,-0.459687,-0.009326,-0.019185,-0.027979,29.580000,177.723160,998.360962
0.000000,0.000000,0.000000,0.000000,-0.124498,-9.849746,-0.301669,0.001599,-0.011458,-0.042900,29.580000,177.723160,998.360962
0.000000,0.000000,0.000000,0.000000,-0.438139,-9.832987,-0.450110,0.007727,-0.008793,-0.048230,29.580000,177.723160,998.360962
0.000000,0.000000,0.000000,0.000000,-0.526724,-9.818622,-0.696713,0.005063,-0.017320,-0.032242,29.580000,177.723160,998.360962
0.000000,0.000000,0.000000,0.000000,-0.402226,-9.840169,-0.588974,-0.007194,-0.020784,-0.023182,29.580000,177.715988,998.361816
0.000000,0.000000,0.000000,0.000000,-0.239420,-9.844957,-0.481235,-0.010658,-0.018119,-0.029311,29.580000,177.715988,998.361816
0.000000,0.000000,0.000000,0.000000,-0.246603,-9.849746,-0.363919,0.003997,-0.018386,-0.033841,29.580000,177.715988,998.361816
0.000000,0.000000,0.000000,0.000000,-0.260968,-9.852140,-0.476446,0.006395,-0.013590,-0.038371,29.590000,177.694519,998.364380
0.000000,0.000000,0.000000,0.000000,-0.287304,-9.832987,-0.663194,-0.000266,-0.014123,-0.038371,29.590000,177.694519,998.364380
0.000000,0.000000,0.000000,0.000000,-0.349553,-9.832987,-0.636858,0.002931,-0.014123,-0.036239,29.590000,177.694519,998.364380
0.000000,0.000000,0.000000,0.000000,-0.335188,-9.847352,-0.519542,-0.009060,-0.017320,-0.033841,29.590000,177.694519,998.364380
0.000000,0.000000,0.000000,0.000000,-0.325611,-9.844957,-0.426168,-0.004530,-0.017587,-0.029311,29.600000,177.689911,998.364929
0.000000,0.000000,0.000000,0.000000,-0.323217,-9.847352,-0.397437,0.004263,-0.014389,-0.034907,29.600000,177.689911,998.364929
0.000000,0.000000,0.000000,0.000000,-0.222661,-9.830592,-0.483629,0.000000,-0.015988,-0.035440,29.600000,177.689911,998.364929
0.000000,0.000000,0.000000,0.000000,-0.313640,-9.837775,-0.596156,0.000533,-0.014922,-0.037571,29.600000,177.689911,998.364929
0.000000,0.000000,0.000000,0.000000,-0.373495,-9.856929,-0.490811,-0.001865,-0.015188,-0.035440,29.610001,177.651550,998.369507
0.000000,0.000000,0.000000,0.000000,-0.344765,-9.825804,-0.447716,-0.005063,-0.017320,-0.030110,29.610001,177.651550,998.369507
0.000000,0.000000,0.000000,0.000000,-0.332794,-9.825804,-0.490811,0.001599,-0.017587,-0.029577,29.610001,177.651550,998.369507
0.000000,0.000000,0.000000,0.000000,-0.234632,-9.825804,-0.507571,0.001066,-0.017587,-0.030377,29.610001,177.651550,998.369507
0.000000,0.000000,0.000000,0.000000,-0.229843,-9.832987,-0.550666,-0.003997,-0.013856,-0.035706,29.620001,177.644897,998.370300
0.000000,0.000000,0.000000,0.000000,-0.325611,-9.844957,-0.524330,-0.001066,-0.014123,-0.036505,29.620001,177.644897,998.370300
0.000000,0.000000,0.000000,0.000000,-0.318429,-9.835381,-0.452504,-0.002132,-0.015188,-0.037305,29.620001,177.644897,998.370300
0.000000,0.000000,0.000000,0.000000,-0.313640,-9.849746,-0.495600,0.000533,-0.015988,-0.032775,29.620001,177.644897,998.370300
0.000000,0.000000,0.000000,0.000000,-0.237026,-9.847352,-0.512359,0.003198,-0.015721,-0.034907,29.620001,177.636719,998.371277
0.000000,0.000000,0.000000,0.000000,-0.316035,-9.852140,-0.495600,-0.002132,-0.016254,-0.036239,29.620001,177.636719,998.371277
0.000000,0.000000,0.000000,0.000000,-0.356736,-9.830592,-0.541090,-0.002931,-0.015455,-0.035440,29.620001,177.636719,998.371277
0.000000,0.000000,0.000000,0.000000,-0.344765,-9.852140,-0.459687,0.002132,-0.015988,-0.033574,29.620001,177.636719,998.371277
0.000000,0.000000,0.000000,0.000000,-0.320823,-9.828198,-0.483629,-0.000799,-0.017853,-0.030643,29.629999,177.644897,998.370300
0.000000,0.000000,0.000000,0.000000,-0.311246,-9.832987,-0.560243,0.000799,-0.015988,-0.036239,29.629999,177.644897,998.370300
0.000000,0.000000,0.000000,0.000000,-0.258574,-9.847352,-0.531513,-0.000533,-0.015721,-0.034374,29.629999,177.644897,998.370300
0.000000,0.000000,0.000000,0.000000,-0.323217,-9.837775,-0.478840,-0.003997,-0.014922,-0.037038,29.629999,177.644897,998.370300
0.000000,0.000000,0.000000,0.000000,-0.366313,-9.847352,-0.476446,0.000533,-0.014922,-0.037571,29.639999,177.651550,998.369507
0.000000,0.000000,0.000000,0.000000,-0.308852,-9.854534,-0.497994,0.002398,-0.017587,-0.032775,29.639999,177.651550,998.369507
0.000000,0.000000,0.000000,0.000000,-0.301669,-9.828198,-0.555455,-0.002931,-0.018119,-0.029311,29.639999,177.651550,998.369507
0.000000,0.000000,0.000000,0.000000,-0.244209,-9.856929,-0.490811,-0.002132,-0.015721,-0.036505,29.650000,177.644897,998.370300
0.000000,0.000000,0.000000,0.000000,-0.282516,-9.866506,-0.428562,0.000533,-0.016787,-0.034374,29.650000,177.644897,998.370300
0.000000,0.000000,0.000000,0.000000,-0.363919,-9.835381,-0.462081,0.000000,-0.013590,-0.039436,29.650000,177.644897,998.370300
0.000000,0.000000,0.000000,0.000000,-0.330400,-9.837775,-0.562637,0.001599,-0.015188,-0.031975,29.650000,177.644897,998.370300
0.000000,0.000000,0.000000,0.000000,-0.313640,-9.828198,-0.486023,-0.000799,-0.017320,-0.031443,29.650000,177.636719,998.371277
0.000000,0.000000,0.000000,0.000000,-0.256180,-9.842564,-0.469264,-0.002931,-0.014922,-0.036772,29.650000,177.636719,998.371277
0.000000,0.000000,0.000000,0.000000,-0.246603,-9.837775,-0.478840,0.003730,-0.015455,-0.036505,29.650000,177.636719,998.371277
0.000000,0.000000,0.000000,0.000000,-0.409408,-9.835381,-0.550666,0.000266,-0.013323,-0.038371,29.650000,177.636719,998.371277
0.000000,0.000000,0.000000,0.000000,-0.344765,-9.832987,-0.581791,-0.003730,-0.016254,-0.034374,29.660000,177.644897,998.370300
0.000000,0.000000,0.000000,0.000000,-0.232238,-9.878476,-0.146046,0.016254,0.003997,-0.115911,29.660000,177.644897,998.370300
0.000000,0.000000,0.000000,0.000000,-0.229843,-9.837775,-0.375890,-0.012790,-0.004530,-0.028511,29.660000,177.644897,998.370300
0.000000,0.000000,0.000000,0.000000,-0.215478,-9.859323,-0.536301,-0.035440,-0.015988,-0.053292,29.660000,177.644897,998.370300
0.000000,0.000000,0.000000,0.000000,-0.586579,-9.859323,-0.342371,-0.015988,0.006928,-0.077008,29.670000,177.591187,998.376648
0.000000,0.000000,0.000000,0.000000,-0.174777,-9.852140,-0.696713,0.005329,-0.002132,-0.083136,29.670000,177.591187,998.376648
0.000000,0.000000,0.000000,0.000000,-0.028730,-9.813833,-0.749385,0.024515,-0.019985,-0.046631,29.670000,177.591187,998.376648
0.000000,0.000000,0.000000,0.000000,-0.409408,-9.825804,-0.440533,-0.006129,-0.033574,-0.019985,29.670000,177.591187,998.376648
0.000000,0.000000,0.000000,0.000000,-0.153229,-9.885659,-0.299275,0.001066,-0.004796,-0.055957,29.680000,177.600906,998.375488
0.000000,0.000000,0.000000,0.000000,-0.131681,-9.880871,-0.495600,0.018652,-0.014389,-0.049828,29.680000,177.600906,998.375488
0.000000,0.000000,0.000000,0.000000,0.138864,-9.804255,-0.766145,0.028778,-0.022916,-0.011458,29.680000,177.600906,998.375488
0.000000,0.000000,0.000000,0.000000,-0.428562,-9.871294,-0.222661,0.006662,-0.026113,-0.001599,29.680000,177.600906,998.375488
0.000000,0.000000,0.000000,0.000000,-0.462081,-9.866506,-0.225055,0.003464,-0.013590,-0.045032,29.680000,177.607559,998.374695
0.000000,0.000000,0.000000,0.000000,-0.411803,-9.876082,-0.682347,-0.030377,-0.018119,-0.018386,29.680000,177.607559,998.374695
0.000000,0.000000,0.000000,0.000000,-0.227449,-9.837775,-0.682347,-0.000533,-0.015188,-0.021317,29.680000,177.607559,998.374695
0.000000,0.000000,0.000000,0.000000,-0.131681,-9.866506,-0.220267,0.015988,-0.016521,-0.032775,29.680000,177.607559,998.374695
0.000000,0.000000,0.000000,0.000000,-0.239420,-9.859323,-0.457293,-0.008527,-0.013856,-0.041302,29.690001,177.598358,998.375793
0.000000,0.000000,0.000000,0.000000,-0.296881,-9.811439,-0.782904,-0.009060,-0.014389,-0.035173,29.690001,177.598358,998.375793
0.000000,0.000000,0.000000,0.000000,-0.294487,-9.842564,-0.435745,0.004796,-0.017320,-0.031443,29.690001,177.598358,998.375793
0.000000,0.000000,0.000000,0.000000,-0.292093,-9.880871,-0.301669,-0.005862,-0.017853,-0.030110,29.690001,177.598358,998.375793
0.000000,0.000000,0.000000,0.000000,-0.158017,-9.816227,-0.610521,0.002931,-0.016521,-0.032775,29.700001,177.577377,998.378296
0.000000,0.000000,0.000000,0.000000,-0.167594,-9.825804,-0.521936,0.002931,-0.017320,-0.030910,29.700001,177.577377,998.378296
0.000000,0.000000,0.000000,0.000000,-0.258574,-9.842564,-0.397437,-0.010925,-0.015455,-0.038104,29.700001,177.577377,998.378296
0.000000,0.000000,0.000000,0.000000,-0.213084,-9.837775,-0.471658,0.000266,-0.015721,-0.034374,29.709999,177.572266,998.378906
0.000000,0.000000,0.000000,0.000000,-0.217872,-9.854534,-0.474052,0.008260,-0.014922,-0.035173,29.709999,177.572266,998.378906
0.000000,0.000000,0.000000,0.000000,-0.332794,-9.852140,-0.531513,-0.005063,-0.013856,-0.039703,29.709999,177.572266,998.378906
0.000000,0.000000,0.000000,0.000000,-0.306458,-9.823410,-0.565032,-0.002398,-0.018386,-0.028778,29.709999,177.572266,998.378906
0.000000,0.000000,0.000000,0.000000,-0.193930,-9.844957,-0.390255,0.001599,-0.017320,-0.028511,29.709999,177.579422,998.378052
0.000000,0.000000,0.000000,0.000000,-0.181959,-9.849746,-0.433351,-0.003464,-0.014655,-0.040502,29.709999,177.579422,998.378052
0.000000,0.000000,0.000000,0.000000,-0.217872,-9.830592,-0.557849,0.002665,-0.015188,-0.035173,29.709999,177.579422,998.378052
0.000000,0.000000,0.000000,0.000000,-0.268151,-9.844957,-0.459687,0.002132,-0.013856,-0.039969,29.709999,177.579422,998.378052
0.000000,0.000000,0.000000,0.000000,-0.308852,-9.840169,-0.495600,-0.006928,-0.016254,-0.035706,29.719999,177.541061,998.382629
0.000000,0.000000,0.000000,0.000000,-0.253785,-9.840169,-0.486023,0.000533,-0.018119,-0.026113,29.719999,177.541061,998.382629
0.000000,0.000000,0.000000,0.000000,-0.172383,-9.861717,-0.344765,0.001865,-0.015988,-0.033308,29.719999,177.541061,998.382629
0.000000,0.000000,0.000000,0.000000,-0.169988,-9.837775,-0.490811,-0.003198,-0.017587,-0.030910,29.719999,177.541061,998.382629
0.000000,0.000000,0.000000,0.000000,-0.174777,-9.844957,-0.507571,0.004263,-0.014389,-0.037038,29.730000,177.549759,998.381592
0.000000,0.000000,0.000000,0.000000,-0.263362,-9.861717,-0.430956,-0.001332,-0.013856,-0.038637,29.730000,177.549759,998.381592
0.000000,0.000000,0.000000,0.000000,-0.313640,-9.840169,-0.486023,-0.005063,-0.016254,-0.031709,29.730000,177.549759,998.381592
0.000000,0.000000,0.000000,0.000000,-0.217872,-9.847352,-0.442927,0.005063,-0.016521,-0.032775,29.730000,177.549759,998.381592
0.000000,0.000000,0.000000,0.000000,-0.203507,-9.840169,-0.469264,-0.000266,-0.015188,-0.036505,29.740000,177.541061,998.382629
0.000000,0.000000,0.000000,0.000000,-0.270545,-9.847352,-0.550666,-0.005063,-0.015455,-0.033841,29.740000,177.541061,998.382629
0.000000,0.000000,0.000000,0.000000,-0.225055,-9.844957,-0.409408,0.003464,-0.014922,-0.034640,29.740000,177.541061,998.382629
0.000000,0.000000,0.000000,0.000000,-0.277727,-9.837775,-0.404620,0.001332,-0.015455,-0.033841,29.740000,177.541061,998.382629
0.000000,0.000000,0.000000,0.000000,-0.282516,-9.823410,-0.577003,-0.002398,-0.016254,-0.035706,29.750000,177.534424,998.383423
0.000000,0.000000,0.000000,0.000000,-0.220267,-9.847352,-0.478840,0.000266,-0.015721,-0.033574,29.750000,177.534424,998.383423
0.000000,0.000000,0.000000,0.000000,-0.275333,-9.844957,-0.452504,-0.002931,-0.015988,-0.032242,29.750000,177.534424,998.383423
0.000000,0.000000,0.000000,0.000000,-0.256180,-9.852140,-0.507571,0.000533,-0.015188,-0.035440,29.750000,177.534424,998.383423
0.000000,0.000000,0.000000,0.000000,-0.272939,-9.842564,-0.509965,0.002132,-0.017054,-0.030110,29.760000,177.511917,998.386108
0.000000,0.000000,0.000000,0.000000,-0.232238,-9.835381,-0.435745,-0.005596,-0.014922,-0.033041,29.760000,177.511917,998.386108
0.000000,0.000000,0.000000,0.000000,-0.217872,-9.835381,-0.507571,0.000266,-0.014655,-0.039170,29.760000,177.511917,998.386108
0.000000,0.000000,0.000000,0.000000,-0.311246,-9.849746,-0.474052,0.004530,-0.013590,-0.035706,29.760000,177.511917,998.386108
0.000000,0.000000,0.000000,0.000000,-0.378284,-9.832987,-0.497994,-0.005329,-0.016787,-0.031975,29.760000,177.518555,998.385315
0.000000,0.000000,0.000000,0.000000,-0.165200,-9.847352,-0.466869,-0.001066,-0.018119,-0.026646,29.760000,177.518555,998.385315
0.000000,0.000000,0.000000,0.000000,-0.138864,-9.866506,-0.445322,0.005063,-0.014655,-0.033308,29.760000,177.518555,998.385315
0.000000,0.000000,0.000000,0.000000,-0.203507,-9.854534,-0.517148,-0.001865,-0.013856,-0.040769,29.770000,177.526230,998.384399
0.000000,0.000000,0.000000,0.000000,-0.294487,-9.854534,-0.529119,0.001599,-0.013590,-0.037038,29.770000,177.526230,998.384399
0.000000,0.000000,0.000000,0.000000,-0.363919,-9.854534,-0.452504,0.001066,-0.017054,-0.030910,29.770000,177.526230,998.384399
0.000000,0.000000,0.000000,0.000000,-0.239420,-9.854534,-0.454898,-0.005596,-0.018386,-0.027979,29.770000,177.526230,998.384399
0.000000,0.000000,0.000000,0.000000,-0.146046,-9.842564,-0.478840,0.001599,-0.017587,-0.028245,29.780001,177.530319,998.383911
0.000000,0.000000,0.000000,0.000000,-0.143652,-9.868899,-0.433351,0.002132,-0.014655,-0.036239,29.780001,177.530319,998.383911
0.000000,0.000000,0.000000,0.000000,-0.210690,-9.837775,-0.442927,-0.003198,-0.013590,-0.039969,29.780001,177.530319,998.383911
0.000000,0.000000,0.000000,0.000000,-0.328006,-9.832987,-0.521936,0.002665,-0.013856,-0.038904,29.780001,177.530319,998.383911
0.000000,0.000000,0.000000,0.000000,-0.347159,-9.847352,-0.445322,0.001066,-0.014922,-0.036772,29.790001,177.540039,998.382751
0.000000,0.000000,0.000000,0.000000,-0.361524,-9.842564,-0.569820,-0.003464,-0.015188,-0.032242,29.790001,177.540039,998.382751
0.000000,0.000000,0.000000,0.000000,-0.320823,-9.844957,-0.555455,-0.002398,-0.018919,-0.025314,29.790001,177.540039,998.382751
0.000000,0.000000,0.000000,0.000000,-0.088585,-9.859323,-0.306458,-0.008260,-0.021317,-0.021850,29.790001,177.540039,998.382751
0.000000,0.000000,0.000000,0.000000,0.090980,-9.840169,-0.275333,-0.001599,-0.015455,-0.034374,29.790001,177.547211,998.381897
0.000000,0.000000,0.000000,0.000000,-0.119710,-9.828198,-0.483629,0.014922,-0.008793,-0.054092,29.790001,177.547211,998.381897
0.000000,0.000000,0.000000,0.000000,-0.512359,-9.837775,-0.632069,-0.001599,-0.010925,-0.040769,29.790001,177.547211,998.381897
0.000000,0.000000,0.000000,0.000000,-0.509965,-9.828198,-0.569820,-0.011458,-0.018919,-0.024248,29.790001,177.547211,998.381897
0.000000,0.000000,0.000000,0.000000,-0.299275,-9.842564,-0.361524,-0.002398,-0.022116,-0.018119,29.799999,177.523163,998.384766
0.000000,0.000000,0.000000,0.000000,-0.050278,-9.866506,-0.378284,-0.001066,-0.018652,-0.027179,29.799999,177.523163,998.384766
0.000000,0.000000,0.000000,0.000000,-0.014365,-9.842564,-0.505177,0.001865,-0.012257,-0.043966,29.799999,177.523163,998.384766
0.000000,0.000000,0.000000,0.000000,-0.294487,-9.837775,-0.531513,0.005596,-0.009326,-0.046631,29.799999,177.523163,998.384766
0.000000,0.000000,0.000000,0.000000,-0.541090,-9.854534,-0.488417,-0.001599,-0.013057,-0.039969,29.809999,177.518555,998.385315
0.000000,0.000000,0.000000,0.000000,-0.404620,-9.835381,-0.548272,-0.001865,-0.019985,-0.022916,29.809999,177.518555,998.385315
0.000000,0.000000,0.000000,0.000000,-0.158017,-9.859323,-0.497994,0.001332,-0.019452,-0.026113,29.809999,177.518555,998.385315
0.000000,0.000000,0.000000,0.000000,-0.126893,-9.844957,-0.430956,-0.004796,-0.015455,-0.033574,29.809999,177.518555,998.385315
0.000000,0.000000,0.000000,0.000000,-0.177171,-9.852140,-0.450110,-0.001599,-0.013856,-0.038904,29.820000,177.523163,998.384766
0.000000,0.000000,0.000000,0.000000,-0.404620,-9.844957,-0.454898,0.005063,-0.014389,-0.037305,29.820000,177.523163,998.384766
0.000000,0.000000,0.000000,0.000000,-0.361524,-9.854534,-0.514753,-0.003997,-0.018386,-0.026913,29.820000,177.523163,998.384766
0.000000,0.000000,0.000000,0.000000,-0.184354,-9.844957,-0.531513,-0.004796,-0.018652,-0.027446,29.820000,177.523163,998.384766
0.000000,0.000000,0.000000,0.000000,-0.112527,-9.835381,-0.409408,-0.001599,-0.014922,-0.034907,29.830000,177.544647,998.382202
0.000000,0.000000,0.000000,0.000000,-0.203507,-9.854534,-0.407014,-0.000266,-0.012257,-0.042368,29.830000,177.544647,998.382202
0.000000,0.000000,0.000000,0.000000,-0.239420,-9.861717,-0.378284,0.002665,-0.014123,-0.039969,29.830000,177.536972,998.383118
0.000000,0.000000,0.000000,0.000000,-0.361524,-9.854534,-0.572214,0.000533,-0.014922,-0.034107,29.830000,177.536972,998.383118
0.000000,0.000000,0.000000,0.000000,-0.229843,-9.828198,-0.514753,0.004263,-0.013590,-0.037305,29.840000,177.547211,998.381897
0.000000,0.000000,0.000000,0.000000,-0.342371,-9.847352,-0.464475,-0.001332,-0.014655,-0.035440,29.840000,177.547211,998.381897
0.000000,0.000000,0.000000,0.000000,-0.337582,-9.835381,-0.493206,-0.003997,-0.016254,-0.033574,29.840000,177.547211,998.381897
0.000000,0.000000,0.000000,0.000000,-0.263362,-9.842564,-0.438139,0.001599,-0.017054,-0.029577,29.840000,177.547211,998.381897
0.000000,0.000000,0.000000,0.000000,-0.222661,-9.856929,-0.447716,-0.000533,-0.016521,-0.029577,29.850000,177.522659,998.384827
0.000000,0.000000,0.000000,0.000000,-0.155623,-9.854534,-0.512359,-0.000533,-0.015188,-0.036239,29.850000,177.522659,998.384827
0.000000,0.000000,0.000000,0.000000,-0.227449,-9.859323,-0.452504,0.000533,-0.014123,-0.036239,29.850000,177.522659,998.384827
0.000000,0.000000,0.000000,0.000000,-0.296881,-9.856929,-0.450110,-0.001332,-0.014123,-0.038904,29.860001,177.516006,998.385620
0.000000,0.000000,0.000000,0.000000,-0.304064,-9.854534,-0.481235,-0.000533,-0.014922,-0.037038,29.860001,177.516006,998.385620
0.000000,0.000000,0.000000,0.000000,-0.328006,-9.849746,-0.478840,0.002132,-0.015455,-0.033308,29.860001,177.516006,998.385620
0.000000,0.000000,0.000000,0.000000,-0.248997,-9.844957,-0.488417,-0.001865,-0.017853,-0.031975,29.860001,177.516006,998.385620
0.000000,0.000000,0.000000,0.000000,-0.196325,-9.835381,-0.452504,-0.001865,-0.016521,-0.033574,29.870001,177.506287,998.386780
0.000000,0.000000,0.000000,0.000000,-0.201113,-9.849746,-0.435745,-0.001599,-0.015721,-0.035173,29.870001,177.506287,998.386780
0.000000,0.000000,0.000000,0.000000,-0.237026,-9.849746,-0.442927,-0.000533,-0.014655,-0.036239,29.870001,177.506287,998.386780
0.000000,0.000000,0.000000,0.000000,-0.268151,-9.837775,-0.493206,0.001599,-0.013856,-0.037571,29.870001,177.506287,998.386780
0.000000,0.000000,0.000000,0.000000,-0.292093,-9.859323,-0.471658,0.000000,-0.015455,-0.035173,29.879999,177.483780,998.389404
0.000000,0.000000,0.000000,0.000000,-0.275333,-9.847352,-0.481235,-0.002132,-0.015721,-0.034374,29.879999,177.483780,998.389404
0.000000,0.000000,0.000000,0.000000,-0.284910,-9.856929,-0.474052,-0.000533,-0.016254,-0.033308,29.879999,177.483780,998.389404
0.000000,0.000000,0.000000,0.000000,-0.263362,-9.852140,-0.471658,-0.000799,-0.017853,-0.030643,29.879999,177.483780,998.389404
0.000000,0.000000,0.000000,0.000000,-0.184354,-9.840169,-0.497994,-0.001865,-0.015721,-0.034107,29.879999,177.490433,998.388611
0.000000,0.000000,0.000000,0.000000,-0.193930,-9.835381,-0.486023,0.001865,-0.012790,-0.039170,29.879999,177.490433,998.388611
0.000000,0.000000,0.000000,0.000000,-0.318429,-9.856929,-0.430956,0.000000,-0.015188,-0.035972,29.879999,177.490433,998.388611
0.000000,0.000000,0.000000,0.000000,-0.320823,-9.852140,-0.490811,-0.000533,-0.017853,-0.031176,29.879999,177.490433,998.388611
0.000000,0.000000,0.000000,0.000000,-0.251391,-9.842564,-0.469264,0.000533,-0.016521,-0.031709,29.889999,177.497589,998.387756
0.000000,0.000000,0.000000,0.000000,-0.210690,-9.847352,-0.488417,-0.002665,-0.016521,-0.031443,29.889999,177.497589,998.387756
0.000000,0.000000,0.000000,0.000000,-0.167594,-9.830592,-0.486023,-0.002931,-0.014922,-0.033841,29.889999,177.497589,998.387756
0.000000,0.000000,0.000000,0.000000,-0.203507,-9.861717,-0.471658,0.003464,-0.012790,-0.041302,29.889999,177.497589,998.387756
0.000000,0.000000,0.000000,0.000000,-0.392649,-9.847352,-0.478840,0.003198,-0.011458,-0.042368,29.900000,177.508331,998.386536
0.000000,0.000000,0.000000,0.000000,-0.418985,-9.852140,-0.519542,-0.001599,-0.015188,-0.036239,29.900000,177.508331,998.386536
0.000000,0.000000,0.000000,0.000000,-0.344765,-9.856929,-0.512359,0.000533,-0.020518,-0.025047,29.900000,177.508331,998.386536
0.000000,0.000000,0.000000,0.000000,-0.155623,-9.847352,-0.469264,-0.002398,-0.019985,-0.026113,29.900000,177.508331,998.386536
0.000000,0.000000,0.000000,0.000000,-0.023942,-9.847352,-0.481235,-0.001332,-0.015188,-0.034640,29.910000,177.468948,998.391174
0.000000,0.000000,0.000000,0.000000,-0.134075,-9.868899,-0.402226,0.001332,-0.012524,-0.043167,29.910000,177.468948,998.391174
0.000000,0.000000,0.000000,0.000000,-0.344765,-9.859323,-0.478840,0.002931,-0.011191,-0.043433,29.910000,177.468948,998.391174
0.000000,0.000000,0.000000,0.000000,-0.407014,-9.832987,-0.569820,0.001599,-0.015988,-0.033841,29.910000,177.473557,998.390625
0.000000,0.000000,0.000000,0.000000,-0.380678,-9.835381,-0.567426,-0.002931,-0.020251,-0.025847,29.910000,177.473557,998.390625
0.000000,0.000000,0.000000,0.000000,-0.222661,-9.859323,-0.462081,-0.005862,-0.018386,-0.029311,29.910000,177.473557,998.390625
0.000000,0.000000,0.000000,0.000000,-0.150835,-9.837775,-0.383072,-0.003198,-0.016521,-0.029577,29.910000,177.473557,998.390625
0.000000,0.000000,0.000000,0.000000,-0.196325,-9.849746,-0.435745,0.005329,-0.013057,-0.038371,29.920000,177.466904,998.391418
0.000000,0.000000,0.000000,0.000000,-0.253785,-9.849746,-0.545878,0.002132,-0.013323,-0.039703,29.920000,177.466904,998.391418
0.000000,0.000000,0.000000,0.000000,-0.347159,-9.828198,-0.565032,-0.002132,-0.015188,-0.032775,29.920000,177.466904,998.391418
0.000000,0.000000,0.000000,0.000000,-0.320823,-9.852140,-0.462081,-0.001332,-0.015721,-0.033041,29.920000,177.466904,998.391418
0.000000,0.000000,0.000000,0.000000,-0.263362,-9.837775,-0.395043,-0.000799,-0.017587,-0.030643,29.930000,177.476105,998.390320
0.000000,0.000000,0.000000,0.000000,-0.222661,-9.856929,-0.462081,0.001599,-0.016787,-0.034374,29.930000,177.476105,998.390320
0.000000,0.000000,0.000000,0.000000,-0.179565,-9.835381,-0.505177,0.001066,-0.016254,-0.034907,29.930000,177.476105,998.390320
0.000000,0.000000,0.000000,0.000000,-0.220267,-9.847352,-0.490811,-0.001599,-0.015188,-0.036239,29.930000,177.476105,998.390320
0.000000,0.000000,0.000000,0.000000,-0.232238,-9.842564,-0.454898,-0.002132,-0.015988,-0.035173,29.940001,177.497086,998.387817
0.000000,0.000000,0.000000,0.000000,-0.232238,-9.840169,-0.474052,-0.001599,-0.014922,-0.037038,29.940001,177.497086,998.387817
0.000000,0.000000,0.000000,0.000000,-0.316035,-9.856929,-0.452504,0.000799,-0.013057,-0.040502,29.940001,177.497086,998.387817
0.000000,0.000000,0.000000,0.000000,-0.359130,-9.837775,-0.464475,0.001066,-0.013590,-0.038371,29.940001,177.497086,998.387817
0.000000,0.000000,0.000000,0.000000,-0.397437,-9.847352,-0.497994,0.001865,-0.017853,-0.031176,29.940001,177.502197,998.387207
0.000000,0.000000,0.000000,0.000000,-0.311246,-9.849746,-0.483629,-0.001066,-0.017853,-0.028778,29.940001,177.502197,998.387207
0.000000,0.000000,0.000000,0.000000,-0.215478,-9.852140,-0.486023,-0.003464,-0.019185,-0.028245,29.940001,177.502197,998.387207
0.000000,0.000000,0.000000,0.000000,-0.215478,-9.835381,-0.428562,-0.001332,-0.015188,-0.033041,29.940001,177.502197,998.387207
0.000000,0.000000,0.000000,0.000000,-0.222661,-9.854534,-0.409408,0.002398,-0.013590,-0.037038,29.950001,177.511917,998.386108
0.000000,0.000000,0.000000,0.000000,-0.246603,-9.864111,-0.512359,0.001332,-0.015188,-0.034107,29.950001,177.511917,998.386108
0.000000,0.000000,0.000000,0.000000,-0.268151,-9.859323,-0.514753,0.001599,-0.013856,-0.035972,29.950001,177.511917,998.386108
0.000000,0.000000,0.000000,0.000000,-0.275333,-9.844957,-0.495600,-0.002398,-0.016254,-0.034640,29.950001,177.511917,998.386108
0.000000,0.000000,0.000000,0.000000,-0.272939,-9.842564,-0.459687,-0.001865,-0.016787,-0.033041,29.959999,177.487366,998.388977
0.000000,0.000000,0.000000,0.000000,-0.239420,-9.825804,-0.454898,0.001332,-0.014922,-0.034907,29.959999,177.487366,998.388977
0.000000,0.000000,0.000000,0.000000,-0.282516,-9.856929,-0.438139,-0.000799,-0.015455,-0.035440,29.959999,177.487366,998.388977
0.000000,0.000000,0.000000,0.000000,-0.316035,-9.821015,-0.500388,0.002132,-0.016254,-0.034107,29.959999,177.487366,998.388977
0.000000,0.000000,0.000000,0.000000,-0.260968,-9.844957,-0.545878,-0.000533,-0.015988,-0.032508,29.969999,177.509354,998.386414
0.000000,0.000000,0.000000,0.000000,-0.294487,-9.856929,-0.486023,-0.002931,-0.017853,-0.031709,29.969999,177.509354,998.386414
0.000000,0.000000,0.000000,0.000000,-0.225055,-9.852140,-0.469264,-0.001066,-0.015988,-0.034374,29.969999,177.509354,998.386414
0.000000,0.000000,0.000000,0.000000,-0.217872,-9.847352,-0.428562,0.000799,-0.015721,-0.033308,29.980000,177.530319,998.383911
0.000000,0.000000,0.000000,0.000000,-0.193930,-9.837775,-0.488417,0.002665,-0.015188,-0.035173,29.980000,177.530319,998.383911
0.000000,0.000000,0.000000,0.000000,-0.237026,-9.823410,-0.514753,0.000266,-0.013590,-0.037838,29.980000,177.530319,998.383911
0.000000,0.000000,0.000000,0.000000,-0.289698,-9.852140,-0.466869,-0.001865,-0.015188,-0.036772,29.980000,177.530319,998.383911
0.000000,0.000000,0.000000,0.000000,-0.320823,-9.844957,-0.474052,0.000266,-0.015188,-0.033841,29.980000,177.553848,998.381104
0.000000,0.000000,0.000000,0.000000,-0.328006,-9.847352,-0.466869,0.000266,-0.017320,-0.030377,29.980000,177.553848,998.381104
0.000000,0.000000,0.000000,0.000000,-0.256180,-9.842564,-0.497994,-0.001332,-0.017853,-0.028778,29.980000,177.553848,998.381104
0.000000,0.000000,0.000000,0.000000,-0.167594,-9.873688,-0.524330,-0.000799,-0.017054,-0.031443,29.980000,177.553848,998.381104
0.000000,0.000000,0.000000,0.000000,-0.177171,-9.847352,-0.421380,-0.001599,-0.014655,-0.034640,29.990000,177.530319,998.383911
0.000000,0.000000,0.000000,0.000000,-0.258574,-9.842564,-0.399832,-0.000533,-0.013856,-0.038904,29.990000,177.530319,998.383911
0.000000,0.000000,0.000000,0.000000,-0.308852,-9.849746,-0.478840,0.002132,-0.015188,-0.034640,29.990000,177.530319,998.383911
0.000000,0.000000,0.000000,0.000000,-0.313640,-9.832987,-0.545878,0.001865,-0.014922,-0.035706,29.990000,177.530319,998.383911
0.000000,0.000000,0.000000,0.000000,-0.253785,-9.832987,-0.533907,-0.002398,-0.017587,-0.032242,30.000000,177.534927,998.383362
0.000000,0.000000,0.000000,0.000000,-0.167594,-9.849746,-0.435745,-0.001865,-0.015721,-0.031176,30.000000,177.534927,998.383362
0.000000,0.000000,0.000000,0.000000,-0.203507,-9.856929,-0.380678,-0.000266,-0.013856,-0.037838,30.000000,177.534927,998.383362
0.000000,0.000000,0.000000,0.000000,-0.359130,-9.854534,-0.454898,0.002132,-0.011991,-0.041035,30.000000,177.534927,998.383362
0.000000,0.000000,0.000000,0.000000,-0.493206,-9.840169,-0.517148,0.002398,-0.015455,-0.033841,30.010000,177.527252,998.384277
0.000000,0.000000,0.000000,0.000000,-0.366313,-9.844957,-0.526724,-0.001599,-0.018119,-0.027979,30.010000,177.527252,998.384277
0.000000,0.000000,0.000000,0.000000,-0.208296,-9.849746,-0.438139,-0.001066,-0.020251,-0.023182,30.010000,177.527252,998.384277
0.000000,0.000000,0.000000,0.000000,-0.069432,-9.837775,-0.466869,-0.001865,-0.019452,-0.027979,30.010000,177.527252,998.384277
0.000000,0.000000,0.000000,0.000000,-0.050278,-9.849746,-0.486023,0.000533,-0.011724,-0.043700,30.020000,177.534424,998.383423
0.000000,0.000000,0.000000,0.000000,-0.308852,-9.844957,-0.450110,0.003730,-0.009326,-0.047430,30.020000,177.534424,998.383423
0.000000,0.000000,0.000000,0.000000,-0.529119,-9.849746,-0.490811,0.002132,-0.015188,-0.035173,30.020000,177.534424,998.383423
0.000000,0.000000,0.000000,0.000000,-0.478840,-9.835381,-0.548272,-0.000266,-0.018652,-0.024248,30.020000,177.534424,998.383423
0.000000,0.000000,0.000000,0.000000,-0.220267,-9.854534,-0.500388,-0.002398,-0.022116,-0.021051,30.030001,177.555389,998.380920
0.000000,0.000000,0.000000,0.000000,-0.052672,-9.844957,-0.418985,-0.004263,-0.016787,-0.031975,30.030001,177.555389,998.380920
0.000000,0.000000,0.000000,0.000000,-0.112527,-9.852140,-0.428562,0.001332,-0.011724,-0.042101,30.030001,177.555389,998.380920
0.000000,0.000000,0.000000,0.000000,-0.246603,-9.864111,-0.447716,0.004530,-0.010126,-0.043966,30.030001,177.555389,998.380920
0.000000,0.000000,0.000000,0.000000,-0.428562,-9.847352,-0.526724,0.001332,-0.011991,-0.041035,30.040001,177.562042,998.380127
0.000000,0.000000,0.000000,0.000000,-0.452504,-9.830592,-0.543484,0.000799,-0.018919,-0.025847,30.040001,177.562042,998.380127
0.000000,0.000000,0.000000,0.000000,-0.229843,-9.842564,-0.519542,-0.003198,-0.020784,-0.021583,30.040001,177.562042,998.380127
0.000000,0.000000,0.000000,0.000000,-0.071826,-9.856929,-0.464475,-0.005063,-0.018119,-0.030110,30.040001,177.555389,998.380920
0.000000,0.000000,0.000000,0.000000,-0.148441,-9.856929,-0.373495,0.002665,-0.012790,-0.041835,30.040001,177.555389,998.380920
0.000000,0.000000,0.000000,0.000000,-0.299275,-9.861717,-0.464475,0.005596,-0.012524,-0.044766,30.040001,177.555389,998.380920
0.000000,0.000000,0.000000,0.000000,-0.423774,-9.849746,-0.536301,-0.000533,-0.013856,-0.037838,30.040001,177.555389,998.380920
0.000000,0.000000,0.000000,0.000000,-0.395043,-9.835381,-0.553061,-0.002665,-0.017587,-0.028778,30.049999,177.530319,998.383911
0.000000,0.000000,0.000000,0.000000,-0.275333,-9.842564,-0.428562,-0.001865,-0.020518,-0.025314,30.049999,177.530319,998.383911
0.000000,0.000000,0.000000,0.000000,-0.079009,-9.835381,-0.426168,-0.001066,-0.018119,-0.029844,30.049999,177.530319,998.383911
0.000000,0.000000,0.000000,0.000000,-0.107739,-9.825804,-0.450110,0.002665,-0.012257,-0.040502,30.049999,177.530319,998.383911
0.000000,0.000000,0.000000,0.000000,-0.232238,-9.832987,-0.505177,0.002132,-0.011991,-0.042634,30.059999,177.563568,998.379944
0.000000,0.000000,0.000000,0.000000,-0.373495,-9.866506,-0.519542,0.000000,-0.013323,-0.039170,30.059999,177.563568,998.379944
0.000000,0.000000,0.000000,0.000000,-0.366313,-9.847352,-0.505177,-0.000799,-0.016787,-0.029577,30.059999,177.563568,998.379944
0.000000,0.000000,0.000000,0.000000,-0.256180,-9.844957,-0.478840,-0.001332,-0.018652,-0.026646,30.059999,177.563568,998.379944
0.000000,0.000000,0.000000,0.000000,-0.174777,-9.840169,-0.514753,-0.002132,-0.018919,-0.029577,30.070000,177.542084,998.382507
0.000000,0.000000,0.000000,0.000000,-0.155623,-9.849746,-0.457293,0.001599,-0.014655,-0.037305,30.070000,177.542084,998.382507
0.000000,0.000000,0.000000,0.000000,-0.280122,-9.842564,-0.423774,0.001599,-0.012790,-0.039170,30.070000,177.542084,998.382507
0.000000,0.000000,0.000000,0.000000,-0.371101,-9.840169,-0.493206,0.002132,-0.015455,-0.036505,30.070000,177.542084,998.382507
0.000000,0.000000,0.000000,0.000000,-0.335188,-9.835381,-0.502782,0.002132,-0.015455,-0.031975,30.080000,177.531860,998.383728
0.000000,0.000000,0.000000,0.000000,-0.213084,-9.871294,-0.514753,-0.002665,-0.018652,-0.029844,30.080000,177.531860,998.383728
0.000000,0.000000,0.000000,0.000000,-0.196325,-9.866506,-0.478840,-0.001599,-0.014922,-0.035173,30.080000,177.531860,998.383728
0.000000,0.000000,0.000000,0.000000,-0.225055,-9.847352,-0.423774,0.003198,-0.014389,-0.036772,30.080000,177.531860,998.383728
0.000000,0.000000,0.000000,0.000000,-0.275333,-9.835381,-0.476446,0.001599,-0.014389,-0.035440,30.090000,177.541061,998.382629
0.000000,0.000000,0.000000,0.000000,-0.296881,-9.832987,-0.538695,0.000266,-0.015188,-0.034907,30.090000,177.541061,998.382629
0.000000,0.000000,0.000000,0.000000,-0.287304,-9.864111,-0.500388,-0.002132,-0.015188,-0.035440,30.090000,177.541061,998.382629
0.000000,0.000000,0.000000,0.000000,-0.363919,-9.854534,-0.411803,-0.002931,-0.016521,-0.032242,30.090000,177.541061,998.382629
0.000000,0.000000,0.000000,0.000000,-0.287304,-9.866506,-0.445322,0.001599,-0.018119,-0.029577,30.100000,177.531860,998.383728
0.000000,0.000000,0.000000,0.000000,-0.184354,-9.842564,-0.507571,0.002665,-0.015988,-0.031975,30.100000,177.531860,998.383728
0.000000,0.000000,0.000000,0.000000,-0.232238,-9.842564,-0.493206,-0.001066,-0.014922,-0.037838,30.100000,177.531860,998.383728
0.000000,0.000000,0.000000,0.000000,-0.280122,-9.844957,-0.445322,-0.001332,-0.014389,-0.035972,30.100000,177.531860,998.383728
0.000000,0.000000,0.000000,0.000000,-0.258574,-9.840169,-0.464475,-0.000266,-0.015988,-0.034907,30.110001,177.521118,998.385010
0.000000,0.000000,0.000000,0.000000,-0.105345,-9.837775,-0.509965,0.000000,-0.015455,-0.031975,30.110001,177.521118,998.385010
0.000000,0.000000,0.000000,0.000000,-0.375890,-9.852140,-0.399832,0.003198,-0.010925,-0.046098,30.110001,177.544647,998.382202
0.000000,0.000000,0.000000,0.000000,-0.481235,-9.837775,-0.495600,0.002398,-0.016254,-0.034907,30.110001,177.544647,998.382202
0.000000,0.000000,0.000000,0.000000,-0.426168,-9.840169,-0.560243,0.000266,-0.018386,-0.027446,30.120001,177.534927,998.383362
0.000000,0.000000,0.000000,0.000000,-0.186748,-9.840169,-0.495600,-0.004796,-0.021051,-0.022383,30.120001,177.534927,998.383362
0.000000,0.000000,0.000000,0.000000,-0.014365,-9.847352,-0.426168,-0.003198,-0.017320,-0.030910,30.120001,177.534927,998.383362
0.000000,0.000000,0.000000,0.000000,-0.165200,-9.849746,-0.383072,0.004530,-0.011991,-0.046364,30.120001,177.534927,998.383362
0.000000,0.000000,0.000000,0.000000,-0.378284,-9.852140,-0.421380,0.004530,-0.011724,-0.045299,30.129999,177.556412,998.380798
0.000000,0.000000,0.000000,0.000000,-0.454898,-9.837775,-0.577003,0.002398,-0.017054,-0.029844,30.129999,177.556412,998.380798
0.000000,0.000000,0.000000,0.000000,-0.299275,-9.840169,-0.557849,-0.003464,-0.020251,-0.023715,30.129999,177.556412,998.380798
0.000000,0.000000,0.000000,0.000000,-0.083797,-9.856929,-0.418985,-0.007194,-0.018119,-0.029044,30.129999,177.556412,998.380798
0.000000,0.000000,0.000000,0.000000,-0.083797,-9.854534,-0.371101,0.001599,-0.014123,-0.036239,30.139999,177.534424,998.383423
0.000000,0.000000,0.000000,0.000000,-0.189142,-9.844957,-0.430956,0.006928,-0.010925,-0.044233,30.139999,177.534424,998.383423
0.000000,0.000000,0.000000,0.000000,-0.387861,-9.835381,-0.541090,0.002132,-0.011991,-0.041302,30.139999,177.534424,998.383423
0.000000,0.000000,0.000000,0.000000,-0.490811,-9.830592,-0.557849,-0.002398,-0.015455,-0.034107,30.139999,177.534424,998.383423
0.000000,0.000000,0.000000,0.000000,-0.433351,-9.840169,-0.474052,-0.003198,-0.018119,-0.027179,30.150000,177.541580,998.382568
0.000000,0.000000,0.000000,0.000000,-0.234632,-9.852140,-0.418985,-0.002398,-0.022383,-0.021850,30.150000,177.541580,998.382568
0.000000,0.000000,0.000000,0.000000,-0.045490,-9.854534,-0.454898,0.001332,-0.014655,-0.035972,30.150000,177.541580,998.382568
0.000000,0.000000,0.000000,0.000000,-0.186748,-9.842564,-0.483629,0.001066,-0.011724,-0.043167,30.150000,177.541580,998.382568
0.000000,0.000000,0.000000,0.000000,-0.378284,-9.840169,-0.493206,0.000799,-0.012257,-0.042900,30.160000,177.531860,998.383728
0.000000,0.000000,0.000000,0.000000,-0.407014,-9.832987,-0.481235,-0.000799,-0.017054,-0.032508,30.160000,177.531860,998.383728
0.000000,0.000000,0.000000,0.000000,-0.287304,-9.861717,-0.486023,-0.001865,-0.019185,-0.023715,30.160000,177.531860,998.383728
0.000000,0.000000,0.000000,0.000000,-0.122104,-9.861717,-0.486023,-0.001599,-0.016787,-0.030643,30.160000,177.531860,998.383728
0.000000,0.000000,0.000000,0.000000,-0.112527,-9.844957,-0.447716,-0.000799,-0.014123,-0.035173,30.170000,177.564590,998.379822
0.000000,0.000000,0.000000,0.000000,-0.227449,-9.844957,-0.450110,0.002398,-0.011724,-0.043433,30.170000,177.564590,998.379822
0.000000,0.000000,0.000000,0.000000,-0.387861,-9.835381,-0.502782,0.002665,-0.012524,-0.039170,30.170000,177.564590,998.379822
0.000000,0.000000,0.000000,0.000000,-0.385466,-9.835381,-0.524330,-0.000533,-0.016787,-0.029044,30.170000,177.564590,998.379822
0.000000,0.000000,0.000000,0.000000,-0.280122,-9.840169,-0.454898,-0.003198,-0.018119,-0.029044,30.170000,177.588120,998.377014
0.000000,0.000000,0.000000,0.000000,-0.174777,-9.852140,-0.418985,-0.000799,-0.017320,-0.029311,30.170000,177.588120,998.377014
0.000000,0.000000,0.000000,0.000000,-0.184354,-9.837775,-0.404620,0.002132,-0.013856,-0.038371,30.170000,177.588120,998.377014
0.000000,0.000000,0.000000,0.000000,-0.237026,-9.847352,-0.478840,0.002398,-0.012790,-0.041035,30.170000,177.588120,998.377014
0.000000,0.000000,0.000000,0.000000,-0.313640,-9.832987,-0.531513,0.002132,-0.014655,-0.034907,30.180000,177.564590,998.379822
0.000000,0.000000,0.000000,0.000000,-0.361524,-9.861717,-0.500388,-0.002931,-0.016787,-0.033841,30.180000,177.564590,998.379822
0.000000,0.000000,0.000000,0.000000,-0.241814,-9.847352,-0.471658,-0.002132,-0.017587,-0.030110,30.180000,177.564590,998.379822
0.000000,0.000000,0.000000,0.000000,-0.191536,-9.852140,-0.471658,0.000000,-0.017054,-0.030110,30.190001,177.539536,998.382812
0.000000,0.000000,0.000000,0.000000,-0.191536,-9.844957,-0.452504,0.000266,-0.014922,-0.036772,30.190001,177.539536,998.382812
0.000000,0.000000,0.000000,0.000000,-0.246603,-9.837775,-0.493206,-0.000533,-0.014389,-0.036239,30.190001,177.539536,998.382812
0.000000,0.000000,0.000000,0.000000,-0.330400,-9.852140,-0.486023,0.001066,-0.014389,-0.035440,30.190001,177.539536,998.382812
0.000000,0.000000,0.000000,0.000000,-0.292093,-9.842564,-0.457293,-0.001066,-0.017054,-0.032508,30.200001,177.563065,998.380005
0.000000,0.000000,0.000000,0.000000,-0.241814,-9.844957,-0.490811,-0.000799,-0.017853,-0.030110,30.200001,177.563065,998.380005
0.000000,0.000000,0.000000,0.000000,-0.189142,-9.842564,-0.464475,0.001066,-0.015988,-0.035173,30.200001,177.563065,998.380005
0.000000,0.000000,0.000000,0.000000,-0.215478,-9.847352,-0.426168,-0.001066,-0.014922,-0.036505,30.200001,177.563065,998.380005
0.000000,0.000000,0.000000,0.000000,-0.294487,-9.844957,-0.471658,0.001599,-0.014922,-0.035972,30.209999,177.553848,998.381104
0.000000,0.000000,0.000000,0.000000,-0.308852,-9.842564,-0.452504,0.001599,-0.016787,-0.033574,30.209999,177.553848,998.381104
0.000000,0.000000,0.000000,0.000000,-0.244209,-9.840169,-0.505177,-0.002398,-0.018119,-0.028245,30.209999,177.553848,998.381104
0.000000,0.000000,0.000000,0.000000,-0.217872,-9.832987,-0.481235,0.001332,-0.015455,-0.036772,30.209999,177.553848,998.381104
0.000000,0.000000,0.000000,0.000000,-0.213084,-9.837775,-0.466869,0.001332,-0.013856,-0.036772,30.219999,177.574829,998.378601
0.000000,0.000000,0.000000,0.000000,-0.316035,-9.835381,-0.483629,-0.000266,-0.015988,-0.035173,30.219999,177.574829,998.378601
0.000000,0.000000,0.000000,0.000000,-0.301669,-9.844957,-0.483629,0.000799,-0.015188,-0.035972,30.219999,177.574829,998.378601
0.000000,0.000000,0.000000,0.000000,-0.275333,-9.852140,-0.454898,-0.000533,-0.017320,-0.029311,30.219999,177.574829,998.378601
0.000000,0.000000,0.000000,0.000000,-0.265756,-9.842564,-0.483629,-0.001332,-0.015721,-0.032775,30.230000,177.552826,998.381226
0.000000,0.000000,0.000000,0.000000,-0.196325,-9.844957,-0.442927,0.000266,-0.015988,-0.035440,30.230000,177.552826,998.381226
0.000000,0.000000,0.000000,0.000000,-0.270545,-9.849746,-0.445322,-0.000266,-0.015721,-0.032775,30.230000,177.552826,998.381226
0.000000,0.000000,0.000000,0.000000,-0.272939,-9.840169,-0.488417,0.001066,-0.014389,-0.038371,30.230000,177.552826,998.381226
0.000000,0.000000,0.000000,0.000000,-0.268151,-9.837775,-0.495600,0.000533,-0.014655,-0.033308,30.240000,177.543625,998.382324
0.000000,0.000000,0.000000,0.000000,-0.292093,-9.849746,-0.452504,-0.000533,-0.016521,-0.032242,30.240000,177.543625,998.382324
0.000000,0.000000,0.000000,0.000000,-0.232238,-9.842564,-0.459687,-0.000533,-0.015455,-0.034107,30.240000,177.543625,998.382324
0.000000,0.000000,0.000000,0.000000,-0.232238,-9.847352,-0.481235,0.001865,-0.015988,-0.031975,30.240000,177.543625,998.382324
0.000000,0.000000,0.000000,0.000000,-0.253785,-9.828198,-0.493206,0.000266,-0.014655,-0.036239,30.250000,177.536469,998.383179
0.000000,0.000000,0.000000,0.000000,-0.251391,-9.835381,-0.462081,-0.001066,-0.014655,-0.036505,30.250000,177.536469,998.383179
0.000000,0.000000,0.000000,0.000000,-0.306458,-9.835381,-0.466869,0.000266,-0.014655,-0.033041,30.250000,177.536469,998.383179
0.000000,0.000000,0.000000,0.000000,-0.311246,-9.849746,-0.478840,0.000000,-0.016521,-0.034640,30.250000,177.536469,998.383179
0.000000,0.000000,0.000000,0.000000,-0.239420,-9.864111,-0.481235,-0.000533,-0.018119,-0.029577,30.260000,177.528275,998.384155
0.000000,0.000000,0.000000,0.000000,-0.237026,-9.847352,-0.469264,0.000000,-0.015988,-0.035173,30.260000,177.528275,998.384155
0.000000,0.000000,0.000000,0.000000,-0.222661,-9.852140,-0.447716,-0.000266,-0.014389,-0.036772,30.260000,177.528275,998.384155
0.000000,0.000000,0.000000,0.000000,-0.268151,-9.842564,-0.471658,0.002132,-0.015455,-0.035173,30.260000,177.519073,998.385254
0.000000,0.000000,0.000000,0.000000,-0.268151,-9.840169,-0.502782,0.000000,-0.015721,-0.034374,30.260000,177.519073,998.385254
0.000000,0.000000,0.000000,0.000000,-0.251391,-9.837775,-0.440533,0.000000,-0.014922,-0.034374,30.260000,177.519073,998.385254
0.000000,0.000000,0.000000,0.000000,-0.251391,-9.842564,-0.464475,-0.000799,-0.016254,-0.033841,30.270000,177.509354,998.386414
0.000000,0.000000,0.000000,0.000000,-0.277727,-9.849746,-0.490811,0.001865,-0.014655,-0.037038,30.270000,177.509354,998.386414
0.000000,0.000000,0.000000,0.000000,-0.251391,-9.859323,-0.474052,0.001066,-0.015721,-0.034374,30.270000,177.509354,998.386414
0.000000,0.000000,0.000000,0.000000,-0.299275,-9.821015,-0.505177,0.000000,-0.016254,-0.034907,30.270000,177.509354,998.386414
0.000000,0.000000,0.000000,0.000000,-0.270545,-9.868899,-0.474052,-0.000799,-0.015721,-0.033574,30.280001,177.518555,998.385315
0.000000,0.000000,0.000000,0.000000,-0.246603,-9.847352,-0.442927,-0.001066,-0.016787,-0.031709,30.280001,177.518555,998.385315
0.000000,0.000000,0.000000,0.000000,-0.263362,-9.842564,-0.464475,0.001066,-0.014922,-0.035440,30.280001,177.518555,998.385315
0.000000,0.000000,0.000000,0.000000,-0.205901,-9.840169,-0.433351,0.000266,-0.016521,-0.033041,30.290001,177.511917,998.386108
0.000000,0.000000,0.000000,0.000000,-0.253785,-9.832987,-0.486023,0.000799,-0.014922,-0.035972,30.290001,177.511917,998.386108
0.000000,0.000000,0.000000,0.000000,-0.251391,-9.837775,-0.459687,0.000533,-0.014655,-0.037305,30.290001,177.511917,998.386108
0.000000,0.000000,0.000000,0.000000,-0.258574,-9.849746,-0.423774,-0.000266,-0.014655,-0.035440,30.290001,177.511917,998.386108
0.000000,0.000000,0.000000,0.000000,-0.313640,-9.844957,-0.464475,0.002665,-0.014655,-0.037571,30.299999,177.487366,998.388977
0.000000,0.000000,0.000000,0.000000,-0.284910,-9.835381,-0.483629,0.000266,-0.017054,-0.030377,30.299999,177.487366,998.388977
0.000000,0.000000,0.000000,0.000000,-0.280122,-9.844957,-0.490811,-0.001332,-0.017320,-0.031176,30.299999,177.487366,998.388977
0.000000,0.000000,0.000000,0.000000,-0.205901,-9.835381,-0.440533,-0.000799,-0.014123,-0.034640,30.299999,177.487366,998.388977
0.000000,0.000000,0.000000,0.000000,-0.220267,-9.861717,-0.416591,0.000000,-0.016254,-0.033308,30.309999,177.482758,998.389526
0.000000,0.000000,0.000000,0.000000,-0.282516,-9.844957,-0.464475,0.002132,-0.014922,-0.035706,30.309999,177.482758,998.389526
0.000000,0.000000,0.000000,0.000000,-0.270545,-9.830592,-0.476446,0.000533,-0.015455,-0.034107,30.309999,177.482758,998.389526
0.000000,0.000000,0.000000,0.000000,-0.304064,-9.854534,-0.519542,-0.002398,-0.017587,-0.032242,30.309999,177.482758,998.389526
