latitude,longitude,groundspeed,GPSAltitude,accelerationX,accelerationY,accelerationZ,gyroX,gyroY,gyroZ,temperature,altitude,pressure(hPa)
0.000000,0.000000,0.000000,0.000000,0.222661,-9.768343,1.300052,-0.071145,-0.117510,-0.217167,14.530000,183.899231,997.627319
0.000000,0.000000,0.000000,0.000000,0.007183,-9.318233,1.300052,-0.059421,-0.240616,-0.138560,14.610000,183.989822,997.616577
0.000000,0.000000,0.000000,0.000000,0.143652,-9.809045,1.010353,-0.067681,-0.306698,-0.097259,14.610000,183.989822,997.616577
0.000000,0.000000,0.000000,0.000000,0.179565,-9.718064,1.323994,-0.160410,-0.174266,-0.108983,14.610000,183.989822,997.616577
0.000000,0.000000,0.000000,0.000000,0.509965,-9.279925,0.679953,-0.353329,-0.344003,-0.221697,14.610000,183.989822,997.616577
0.000000,0.000000,0.000000,0.000000,0.715866,-10.034100,0.457293,-0.342671,-0.634980,-0.277920,14.570000,184.467850,997.559814
0.000000,0.000000,0.000000,0.000000,1.347936,-9.641450,-0.320823,-0.230757,-0.814842,-0.289378,14.570000,184.467850,997.559814
0.000000,0.000000,0.000000,0.000000,1.678335,-9.684546,-0.162806,-0.171602,-0.876662,-0.297905,14.570000,184.467850,997.559814
0.000000,0.000000,0.000000,0.000000,2.008735,-9.777920,-0.667982,-0.229691,-0.967792,-0.243280,14.570000,184.467850,997.559814
0.000000,0.000000,0.000000,0.000000,1.994370,-9.684546,-1.244985,-0.215568,-1.155914,-0.081538,14.570000,184.440216,997.563110
0.000000,0.000000,0.000000,0.000000,1.666364,-9.816227,-1.680730,-0.153216,-0.736236,0.148420,14.570000,184.440216,997.563110
0.000000,0.000000,0.000000,0.000000,0.995988,-9.361329,-2.310405,-0.139893,-0.280319,0.123372,14.570000,184.440216,997.563110
0.000000,0.000000,0.000000,0.000000,1.098939,-9.763555,-2.056619,-0.046631,-0.103121,-0.015721,14.570000,184.352692,997.573486
0.000000,0.000000,0.000000,0.000000,1.300052,-9.737218,-2.111686,-0.008793,-0.063951,-0.112447,14.570000,184.352692,997.573486
0.000000,0.000000,0.000000,0.000000,1.376666,-9.718064,-1.733402,0.011991,-0.028245,-0.150285,14.570000,184.352692,997.573486
0.000000,0.000000,0.000000,0.000000,1.601721,-9.619903,-2.092532,0.003730,-0.022383,-0.153216,14.570000,184.352692,997.573486
0.000000,0.000000,0.000000,0.000000,1.462857,-9.636662,-2.063802,-0.038371,0.032242,-0.168937,14.570000,184.324020,997.576904
0.000000,0.000000,0.000000,0.000000,1.752556,-9.569624,-1.857901,-0.064484,0.252873,-0.241415,14.570000,184.324020,997.576904
0.000000,0.000000,0.000000,0.000000,2.513912,-9.651027,-1.920150,-0.047430,0.279786,-0.268861,14.570000,184.324020,997.576904
0.000000,0.000000,0.000000,0.000000,3.007117,-9.284714,-2.037466,-0.058355,0.326150,-0.178263,14.570000,184.324020,997.576904
0.000000,0.000000,0.000000,0.000000,2.849100,-9.414001,-1.958457,0.045832,0.252606,-0.031176,14.570000,184.267731,997.583618
0.000000,0.000000,0.000000,0.000000,2.461239,-9.459491,-1.999158,0.175599,0.303767,0.016254,14.570000,184.267731,997.583618
0.000000,0.000000,0.000000,0.000000,2.786851,-9.258378,-2.073379,0.314692,0.243014,0.009859,14.570000,184.267731,997.583618
0.000000,0.000000,0.000000,0.000000,2.913743,-9.485827,-0.667982,0.547314,0.153216,0.138294,14.570000,184.267731,997.583618
0.000000,0.000000,0.000000,0.000000,2.415750,-9.248801,0.521936,0.468708,0.413017,0.197182,14.570000,184.252884,997.585327
0.000000,0.000000,0.000000,0.000000,1.905785,-9.928755,0.833182,0.399694,0.339473,0.158279,14.570000,184.252884,997.585327
0.000000,0.000000,0.000000,0.000000,1.412579,-10.098742,1.766921,0.304300,0.677614,0.070080,14.570000,184.252884,997.585327
0.000000,0.000000,0.000000,0.000000,0.782904,-9.572019,2.092532,0.009326,1.915332,-0.055957,14.570000,184.252884,997.585327
0.000000,0.000000,0.000000,0.000000,1.146823,-9.651027,2.128445,-0.280585,1.092230,-0.130300,14.570000,184.207336,997.590759
0.000000,0.000000,0.000000,0.000000,1.247379,-9.339781,1.338359,-0.393832,0.973920,-0.060753,14.570000,184.207336,997.590759
0.000000,0.000000,0.000000,0.000000,0.627281,-9.842564,0.790087,-0.306432,0.466043,0.045565,14.570000,184.207336,997.590759
0.000000,0.000000,0.000000,0.000000,0.256180,-9.677363,0.325611,-0.105786,0.359991,0.096726,14.570000,184.207336,997.590759
0.000000,0.000000,0.000000,0.000000,0.754174,-9.090784,1.254562,0.026380,0.326150,0.078340,14.580000,184.205795,997.590942
0.000000,0.000000,0.000000,0.000000,0.131681,-9.514558,0.672771,0.010126,0.227292,-0.030377,14.580000,184.205795,997.590942
0.000000,0.000000,0.000000,0.000000,0.074220,-9.643845,0.869095,-0.017054,0.021317,-0.108184,14.580000,184.205795,997.590942
0.000000,0.000000,0.000000,0.000000,-0.002394,-9.844957,0.529119,0.063418,0.022649,-0.085801,14.580000,184.205795,997.590942
0.000000,0.000000,0.000000,0.000000,0.225055,-9.809045,1.177947,0.052227,-0.069014,0.005862,14.580000,184.141312,997.598572
0.000000,0.000000,0.000000,0.000000,-0.354342,-9.557653,0.976834,0.114579,-0.254738,0.079672,14.580000,184.141312,997.598572
0.000000,0.000000,0.000000,0.000000,-0.572214,-9.703699,1.149217,-0.004263,-0.065550,-0.017320,14.580000,184.141312,997.598572
0.000000,0.000000,0.000000,0.000000,-0.138864,-9.639056,1.163582,-0.009326,-0.236086,-0.040236,14.580000,184.141312,997.598572
0.000000,0.000000,0.000000,0.000000,0.251391,-9.818622,1.788469,-0.063951,-0.562769,-0.055957,14.580000,184.122879,997.600769
0.000000,0.000000,0.000000,0.000000,-0.052672,-9.698911,1.266533,0.004263,-0.323752,-0.099657,14.580000,184.122879,997.600769
0.000000,0.000000,0.000000,0.000000,0.392649,-9.509769,1.347936,0.100190,-0.259534,-0.133498,14.580000,184.122879,997.600769
0.000000,0.000000,0.000000,0.000000,0.363919,-9.962274,1.278504,-0.061819,-0.120175,-0.041302,14.580000,184.122879,997.600769
0.000000,0.000000,0.000000,0.000000,0.316035,-9.550470,1.113304,-0.039703,0.022116,0.014123,14.590000,184.107025,997.602661
0.000000,0.000000,0.000000,0.000000,1.065420,-9.828198,1.575385,0.036505,0.195850,0.072744,14.590000,184.107025,997.602661
0.000000,0.000000,0.000000,0.000000,0.076614,-10.376471,1.716643,-0.267795,0.891850,0.301636,14.590000,184.107025,997.602661
0.000000,0.000000,0.000000,0.000000,-0.155623,-11.190498,0.323217,-0.355194,0.953936,0.174000,14.590000,184.107025,997.602661
0.000000,0.000000,0.000000,0.000000,-1.379060,-9.418790,-0.373495,-0.272325,0.317890,-0.051694,14.590000,184.070175,997.607056
0.000000,0.000000,0.000000,0.000000,-0.239420,-9.284714,0.000000,-0.074343,0.066616,-0.043966,14.590000,184.070175,997.607056
0.000000,0.000000,0.000000,0.000000,-0.995988,-8.925584,-0.198719,0.041035,0.163075,0.104720,14.590000,184.070175,997.607056
0.000000,0.000000,0.000000,0.000000,-1.027112,-9.452309,0.294487,0.086867,-0.058355,0.007727,14.590000,184.070175,997.607056
0.000000,0.000000,0.000000,0.000000,-1.656788,-9.758766,0.337582,0.081271,-0.098325,-0.021583,14.590000,184.080399,997.605835
0.000000,0.000000,0.000000,0.000000,-0.325611,-9.765948,0.826000,0.047697,0.068481,-0.051161,14.590000,184.080399,997.605835
0.000000,0.000000,0.000000,0.000000,-1.450886,-9.483433,0.375890,-0.026113,0.044233,-0.079139,14.590000,184.080399,997.605835
0.000000,0.000000,0.000000,0.000000,-1.218649,-9.789890,0.225055,-0.025847,-0.005596,-0.046364,14.590000,184.080399,997.605835
0.000000,0.000000,0.000000,0.000000,-1.333570,-9.684546,0.289698,0.001066,0.053292,-0.101522,14.600000,184.059937,997.608276
0.000000,0.000000,0.000000,0.000000,-0.512359,-9.725247,0.490811,-0.041302,-0.008793,-0.039170,14.600000,184.059937,997.608276
0.000000,0.000000,0.000000,0.000000,-0.711078,-9.421184,0.562637,0.056757,0.001066,-0.022649,14.600000,184.059937,997.608276
0.000000,0.000000,0.000000,0.000000,-1.618480,-9.713276,0.404620,-0.018386,-0.020251,-0.073810,14.600000,184.059937,997.608276
0.000000,0.000000,0.000000,0.000000,-0.859518,-9.706094,0.663194,-0.000533,0.023982,0.002132,14.600000,184.009781,997.614197
0.000000,0.000000,0.000000,0.000000,-0.866701,-9.385271,0.541090,-0.105519,0.155348,0.030643,14.600000,184.009781,997.614197
0.000000,0.000000,0.000000,0.000000,-0.634463,-9.646238,0.481235,-0.015721,0.076741,-0.038104,14.600000,184.009781,997.614197
0.000000,0.000000,0.000000,0.000000,-1.206678,-9.940725,0.136469,-0.016521,0.132698,0.027179,14.600000,184.009781,997.614197
0.000000,0.000000,0.000000,0.000000,-1.233014,-9.521740,0.471658,0.014123,0.077274,-0.039170,14.610000,184.016937,997.613342
0.000000,0.000000,0.000000,0.000000,-1.319205,-9.646238,0.155623,-0.020518,0.046631,-0.091663,14.610000,184.016937,997.613342
0.000000,0.000000,0.000000,0.000000,-0.339977,-9.469068,0.385466,0.047697,0.252073,0.037571,14.610000,184.016937,997.613342
0.000000,0.000000,0.000000,0.000000,-1.118092,-9.696517,0.577003,-0.066616,-0.039436,0.013856,14.610000,184.016937,997.613342
0.000000,0.000000,0.000000,0.000000,-0.476446,-9.478644,0.802058,0.005329,-0.172934,-0.058622,14.610000,184.008240,997.614380
0.000000,0.000000,0.000000,0.000000,-1.580173,-9.744401,0.325611,-0.123106,-0.216900,0.098058,14.610000,184.008240,997.614380
0.000000,0.000000,0.000000,0.000000,-1.221043,-9.801862,0.260968,0.045832,-0.261133,-0.106319,14.610000,184.008240,997.614380
0.000000,0.000000,0.000000,0.000000,-0.847547,-9.718064,0.742203,-0.079672,-0.175865,-0.121240,14.610000,184.008240,997.614380
0.000000,0.000000,0.000000,0.000000,-0.861913,-9.593566,0.119710,0.005862,0.074609,-0.070879,14.620000,184.015915,997.613464
0.000000,0.000000,0.000000,0.000000,-1.096544,-9.835381,0.325611,-0.179596,0.447124,0.082070,14.620000,184.015915,997.613464
0.000000,0.000000,0.000000,0.000000,-4.077325,-13.230358,4.369418,-0.387969,-0.276588,0.013323,14.620000,184.015915,997.613464
0.000000,0.000000,0.000000,0.000000,1.010353,-6.904878,-1.589750,-0.797256,-0.389568,-0.391700,14.620000,184.015915,997.613464
0.000000,0.000000,0.000000,0.000000,-0.818817,-8.513782,-2.774880,-0.450855,-0.612597,-0.012790,14.620000,184.007217,997.614502
0.000000,0.000000,0.000000,0.000000,-1.484405,-10.048465,-3.421314,-0.129234,-0.411418,-0.038104,14.620000,184.007217,997.614502
0.000000,0.000000,0.000000,0.000000,-0.914585,-10.498574,-0.878672,0.229158,-0.285648,-0.163608,14.620000,184.007217,997.614502
0.000000,0.000000,0.000000,0.000000,-0.881066,-10.359711,-1.005565,0.275522,0.349865,-0.180928,14.620000,184.007217,997.614502
0.000000,0.000000,0.000000,0.000000,-0.074220,-9.624691,-1.877054,0.158812,0.958466,-0.245145,14.630000,184.016937,997.613342
0.000000,0.000000,0.000000,0.000000,-0.284910,-9.842564,-1.527501,0.063418,0.379176,-0.333611,14.630000,184.016937,997.613342
0.000000,0.000000,0.000000,0.000000,0.062249,-10.079589,-0.737414,0.005596,0.928089,-0.186257,14.630000,184.016937,997.613342
0.000000,0.000000,0.000000,0.000000,1.144428,-9.799467,-0.560243,-0.159078,-0.611798,0.116444,14.630000,184.016937,997.613342
0.000000,0.000000,0.000000,0.000000,-1.261744,-9.071630,-0.110133,0.111115,0.176398,0.155614,14.640000,183.992371,997.616272
0.000000,0.000000,0.000000,0.000000,0.366313,-10.364499,-0.778116,-0.175332,0.567832,-0.168138,14.640000,183.992371,997.616272
0.000000,0.000000,0.000000,0.000000,0.193930,-9.981427,-1.922544,-0.554242,0.113513,-0.185724,14.640000,183.992371,997.616272
0.000000,0.000000,0.000000,0.000000,1.568202,-9.102755,-0.967257,-0.259268,0.734637,-0.162009,14.640000,183.992371,997.616272
0.000000,0.000000,0.000000,0.000000,0.746991,-9.528923,-1.920150,0.078340,0.301103,-0.143090,14.640000,183.998001,997.615601
0.000000,0.000000,0.000000,0.000000,0.632069,-10.026917,-1.572991,0.070879,-0.105253,-0.006662,14.640000,183.998001,997.615601
0.000000,0.000000,0.000000,0.000000,0.615310,-9.670180,-1.769315,-0.013057,-0.059155,-0.055424,14.640000,183.998001,997.615601
0.000000,0.000000,0.000000,0.000000,0.447716,-9.811439,-1.889025,-0.011191,-0.025847,-0.073810,14.640000,183.998001,997.615601
0.000000,0.000000,0.000000,0.000000,0.656011,-9.868899,-1.673547,0.042634,-0.156946,0.000533,14.650000,183.991348,997.616394
0.000000,0.000000,0.000000,0.000000,0.296881,-9.648633,-2.154782,0.022383,-0.171335,-0.008260,14.650000,183.991348,997.616394
0.000000,0.000000,0.000000,0.000000,0.699107,-9.619903,-1.606509,-0.014389,-0.062086,-0.027979,14.650000,183.991348,997.616394
0.000000,0.000000,0.000000,0.000000,0.323217,-9.703699,-1.800440,-0.034374,-0.135629,0.034107,14.650000,183.991348,997.616394
0.000000,0.000000,0.000000,0.000000,0.177171,-9.919178,-1.625663,-0.002398,-0.069813,0.005063,14.650000,183.980606,997.617676
0.000000,0.000000,0.000000,0.000000,0.316035,-9.639056,-1.707066,0.024515,-0.119109,-0.080738,14.650000,183.980606,997.617676
0.000000,0.000000,0.000000,0.000000,0.490811,-9.959879,-1.623269,-0.063951,-0.621391,0.021850,14.650000,183.980606,997.617676
0.000000,0.000000,0.000000,0.000000,-0.220267,-9.727641,-1.769315,0.037305,-0.253939,0.098591,14.650000,183.980606,997.617676
0.000000,0.000000,0.000000,0.000000,0.184354,-9.837775,-1.453280,0.051694,-0.107651,-0.055957,14.660000,183.967804,997.619202
0.000000,0.000000,0.000000,0.000000,0.090980,-9.861717,-1.391031,-0.006129,0.065283,0.014922,14.660000,183.967804,997.619202
0.000000,0.000000,0.000000,0.000000,0.105345,-9.514558,-1.379060,0.093528,0.041035,0.057023,14.660000,183.967804,997.619202
0.000000,0.000000,0.000000,0.000000,-0.763750,-9.390059,-0.289698,0.135629,-0.118309,-0.147887,14.670000,183.975479,997.618286
0.000000,0.000000,0.000000,0.000000,0.119710,-10.912771,-1.218649,0.142557,-0.122306,-0.096726,14.670000,183.964218,997.619629
0.000000,0.000000,0.000000,0.000000,-0.158017,-10.424355,1.795651,-0.248343,-0.008260,0.057023,14.670000,183.964218,997.619629
0.000000,0.000000,0.000000,0.000000,-0.311246,-6.902483,-0.536301,-0.616061,-1.667522,-0.243813,14.670000,183.964218,997.619629
0.000000,0.000000,0.000000,0.000000,0.646434,-10.323798,-1.618480,-0.529461,-0.271792,0.096193,14.670000,183.964218,997.619629
0.000000,0.000000,0.000000,0.000000,0.146046,-9.830592,-2.446874,-0.137228,-0.103387,0.043966,14.680000,183.926346,997.624146
0.000000,0.000000,0.000000,0.000000,-1.283292,-9.816227,-2.547431,0.132432,-0.637112,0.075675,14.680000,183.926346,997.624146
0.000000,0.000000,0.000000,0.000000,-0.493206,-9.428367,-2.248155,0.293642,-0.154548,0.037838,14.680000,183.926346,997.624146
0.000000,0.000000,0.000000,0.000000,-0.287304,-9.914390,-1.812411,0.350931,-0.124172,0.002398,14.690000,183.947845,997.621582
0.000000,0.000000,0.000000,0.000000,-0.835576,-10.017340,-0.459687,0.302435,-0.042634,-0.037305,14.690000,183.947845,997.621582
0.000000,0.000000,0.000000,0.000000,-0.311246,-9.639056,-0.395043,0.092729,-0.163608,-0.165207,14.690000,183.947845,997.621582
0.000000,0.000000,0.000000,0.000000,-0.519542,-10.321404,-0.380678,-0.029311,-0.530527,-0.102588,14.690000,183.947845,997.621582
0.000000,0.000000,0.000000,0.000000,0.438139,-9.291897,-0.960075,-0.053825,-0.179063,0.095660,14.690000,183.923279,997.624512
0.000000,0.000000,0.000000,0.000000,-0.849942,-10.041282,-1.000776,0.000799,-0.197715,0.251008,14.690000,183.923279,997.624512
0.000000,0.000000,0.000000,0.000000,-1.386243,-9.600749,-0.402226,0.014389,-0.110049,0.116178,14.690000,183.923279,997.624512
0.000000,0.000000,0.000000,0.000000,-1.568202,-10.141838,-0.301669,-0.104453,-0.340806,-0.055691,14.690000,183.923279,997.624512
0.000000,0.000000,0.000000,0.000000,0.179565,-9.066842,-0.756568,-0.073277,-0.101789,-0.173467,14.700000,183.909973,997.626099
0.000000,0.000000,0.000000,0.000000,-0.706290,-10.319010,-0.809240,0.048230,-0.124438,0.070613,14.700000,183.909973,997.626099
0.000000,0.000000,0.000000,0.000000,-1.352724,-9.799467,0.098162,0.098058,-0.231023,0.199047,14.700000,183.909973,997.626099
0.000000,0.000000,0.000000,0.000000,-1.800440,-9.619903,0.335188,-0.053292,-0.259801,0.086334,14.700000,183.909973,997.626099
0.000000,0.000000,0.000000,0.000000,-1.189918,-9.775525,-0.162806,-0.183326,-0.152417,0.019985,14.710000,183.899231,997.627319
0.000000,0.000000,0.000000,0.000000,-1.472434,-9.564836,-0.373495,-0.117243,-0.268594,0.038904,14.710000,183.899231,997.627319
0.000000,0.000000,0.000000,0.000000,-1.726219,-9.344569,-0.816423,-0.017853,-0.182793,0.045565,14.710000,183.899231,997.627319
0.000000,0.000000,0.000000,0.000000,-1.285686,-9.832987,-0.969652,0.037571,-0.102055,0.049296,14.710000,183.899231,997.627319
0.000000,0.000000,0.000000,0.000000,-1.745373,-10.228029,-0.679953,0.049029,0.160144,0.089531,14.710000,183.907410,997.626404
0.000000,0.000000,0.000000,0.000000,-2.025495,-10.618284,-1.046266,-0.032242,0.367985,0.046098,14.710000,183.907410,997.626404
0.000000,0.000000,0.000000,0.000000,-2.334347,-9.648633,-0.852336,0.011458,0.451387,-0.032242,14.710000,183.907410,997.626404
0.000000,0.000000,0.000000,0.000000,-1.865083,-9.232041,-0.359130,0.216900,-0.046897,-0.227559,14.710000,183.907410,997.626404
0.000000,0.000000,0.000000,0.000000,-1.369483,-9.160215,0.201113,0.223562,-0.008527,-0.213703,14.720000,183.893600,997.627991
0.000000,0.000000,0.000000,0.000000,-1.419762,-9.387665,-0.122104,-0.063152,0.081271,-0.064217,14.720000,183.893600,997.627991
0.000000,0.000000,0.000000,0.000000,-1.355118,-9.397242,-0.225055,0.051427,-0.022916,-0.110582,14.720000,183.893600,997.627991
0.000000,0.000000,0.000000,0.000000,-1.249773,-9.739613,0.416591,0.023182,0.029844,-0.030643,14.720000,183.893600,997.627991
0.000000,0.000000,0.000000,0.000000,-1.632846,-9.761160,-0.284910,-0.002398,-0.054625,-0.057023,14.730000,183.910492,997.626038
0.000000,0.000000,0.000000,0.000000,-1.156399,-9.646238,0.215478,0.011991,-0.088466,-0.050361,14.730000,183.910492,997.626038
0.000000,0.000000,0.000000,0.000000,-1.632846,-9.670180,0.107739,-0.027179,-0.026113,0.041302,14.730000,183.910492,997.626038
0.000000,0.000000,0.000000,0.000000,-0.943315,-9.641450,0.174777,0.025580,-0.038904,-0.088199,14.730000,183.910492,997.626038
0.000000,0.000000,0.000000,0.000000,-1.405396,-9.730036,0.069432,0.028245,-0.081005,-0.012524,14.740000,183.914062,997.625610
0.000000,0.000000,0.000000,0.000000,-1.192312,-9.662998,0.339977,-0.009326,-0.051427,0.032775,14.740000,183.914062,997.625610
0.000000,0.000000,0.000000,0.000000,-1.403002,-9.500193,0.256180,-0.044233,-0.121507,0.004796,14.740000,183.914062,997.625610
0.000000,0.000000,0.000000,0.000000,-1.656788,-9.576807,0.052672,-0.032775,0.035706,0.014389,14.740000,183.914062,997.625610
0.000000,0.000000,0.000000,0.000000,-1.563414,-9.631873,0.531513,-0.041568,-0.018119,-0.015188,14.740000,183.905884,997.626587
0.000000,0.000000,0.000000,0.000000,-1.467646,-9.770737,-0.344765,0.026380,0.177198,-0.047697,14.740000,183.905884,997.626587
0.000000,0.000000,0.000000,0.000000,-2.600103,-9.435549,-1.235408,0.260067,1.441828,-0.198781,14.740000,183.905884,997.626587
0.000000,0.000000,0.000000,0.000000,-1.996764,-10.089166,2.130840,0.337608,1.343237,-0.311761,14.740000,183.905884,997.626587
0.000000,0.000000,0.000000,0.000000,-0.873884,-9.943120,0.797269,-0.025047,0.468441,-0.104453,14.750000,183.892578,997.628113
0.000000,0.000000,0.000000,0.000000,-1.711854,-9.619903,-0.079009,-0.031176,0.246211,-0.075142,14.750000,183.892578,997.628113
0.000000,0.000000,0.000000,0.000000,-1.412579,-9.536105,0.210690,0.037038,0.099124,-0.188122,14.750000,183.892578,997.628113
0.000000,0.000000,0.000000,0.000000,-1.060631,-9.648633,0.126893,0.015721,0.000799,-0.279253,14.750000,183.892578,997.628113
0.000000,0.000000,0.000000,0.000000,-0.746991,-9.691729,-0.086191,-0.051161,0.084202,-0.063418,14.760000,183.895645,997.627747
0.000000,0.000000,0.000000,0.000000,-1.041478,-9.679757,-0.167594,-0.056490,0.099923,-0.069813,14.760000,183.895645,997.627747
0.000000,0.000000,0.000000,0.000000,-0.773327,-9.830592,0.229843,-0.080738,0.101522,-0.114579,14.760000,183.895645,997.627747
0.000000,0.000000,0.000000,0.000000,-0.378284,-9.864111,0.047884,-0.008527,-0.010392,-0.056490,14.760000,183.895645,997.627747
0.000000,0.000000,0.000000,0.000000,-0.926556,-9.682152,-0.100556,-0.095926,0.145755,0.024781,14.770000,183.884384,997.629089
0.000000,0.000000,0.000000,0.000000,-0.881066,-9.715671,-0.296881,-0.134031,0.168404,0.030377,14.770000,183.884384,997.629089
0.000000,0.000000,0.000000,0.000000,-0.909797,-9.785102,-0.280122,-0.034640,0.116178,-0.089265,14.770000,183.884384,997.629089
0.000000,0.000000,0.000000,0.000000,-1.316811,-9.756371,-0.861913,0.018919,-0.068481,-0.108184,14.770000,183.884384,997.629089
0.000000,0.000000,0.000000,0.000000,-0.550666,-9.718064,-0.339977,-0.011724,0.034374,-0.043167,14.770000,183.874146,997.630310
0.000000,0.000000,0.000000,0.000000,-0.296881,-9.564836,0.059855,-0.059954,-0.042101,0.031709,14.770000,183.874146,997.630310
0.000000,0.000000,0.000000,0.000000,-0.634463,-9.890448,-0.387861,-0.089798,0.047164,-0.131100,14.770000,183.874146,997.630310
0.000000,0.000000,0.000000,0.000000,0.033519,-9.648633,0.009577,0.009859,-0.077274,0.081005,14.770000,183.874146,997.630310
0.000000,0.000000,0.000000,0.000000,-1.350330,-9.909601,-0.538695,-0.060487,0.084735,-0.039170,14.780000,183.877213,997.629944
0.000000,0.000000,0.000000,0.000000,-0.560243,-10.328587,0.452504,-0.180129,0.091130,0.141758,14.780000,183.877213,997.629944
0.000000,0.000000,0.000000,0.000000,-1.675941,-9.658210,0.921768,-0.152150,-1.054126,0.085002,14.780000,183.877213,997.629944
0.000000,0.000000,0.000000,0.000000,-1.596933,-10.108319,-1.640028,0.053292,-1.408521,0.083936,14.780000,183.877213,997.629944
0.000000,0.000000,0.000000,0.000000,-1.580173,-9.785102,-0.313640,0.071678,-0.870266,0.034107,14.790000,183.878250,997.629822
0.000000,0.000000,0.000000,0.000000,-1.781286,-9.931149,-0.098162,0.028778,-0.008260,-0.006395,14.790000,183.878250,997.629822
0.000000,0.000000,0.000000,0.000000,-0.854730,-9.888053,0.095768,-0.237418,0.026380,0.277387,14.790000,183.878250,997.629822
0.000000,0.000000,0.000000,0.000000,-2.193089,-9.516952,-0.823605,-0.159611,1.017887,0.014123,14.790000,183.878250,997.629822
0.000000,0.000000,0.000000,0.000000,-1.218649,-9.311050,-1.101333,-0.055957,0.458848,0.079139,14.800000,183.851624,997.632996
0.000000,0.000000,0.000000,0.000000,-1.821988,-9.153033,-1.065420,0.024781,0.328015,0.163342,14.800000,183.851624,997.632996
0.000000,0.000000,0.000000,0.000000,-2.193089,-9.430760,-1.249773,0.059421,0.409020,0.196649,14.800000,183.851624,997.632996
0.000000,0.000000,0.000000,0.000000,-2.961627,-9.344569,-1.223437,0.063951,0.299504,0.115378,14.800000,183.851624,997.632996
0.000000,0.000000,0.000000,0.000000,-2.659958,-9.428367,-0.814029,0.065283,0.260067,-0.045832,14.810000,183.855209,997.632568
0.000000,0.000000,0.000000,0.000000,-2.643199,-9.363723,-0.641646,0.022916,-0.048230,0.002132,14.810000,183.855209,997.632568
0.000000,0.000000,0.000000,0.000000,-2.669535,-9.279925,-1.067814,0.026380,-0.115112,-0.055691,14.810000,183.855209,997.632568
0.000000,0.000000,0.000000,0.000000,-2.272097,-9.414001,-1.139640,0.035972,0.286714,-0.026380,14.810000,183.855209,997.632568
0.000000,0.000000,0.000000,0.000000,-2.454057,-8.959103,-0.972046,0.097259,0.195583,0.052760,14.810000,183.858276,997.632202
0.000000,0.000000,0.000000,0.000000,-2.626439,-9.239224,-0.572214,0.199847,0.229957,0.141225,14.810000,183.858276,997.632202
0.000000,0.000000,0.000000,0.000000,-4.113238,-10.524911,1.177947,-0.237418,0.199047,-0.133498,14.810000,183.858276,997.632202
0.000000,0.000000,0.000000,0.000000,-2.030283,-9.143456,-1.510741,0.094594,0.006129,-0.084202,14.810000,183.858276,997.632202
0.000000,0.000000,0.000000,0.000000,-3.045424,-9.414001,-0.624887,-0.030377,0.027446,0.056490,14.820000,183.861862,997.631775
0.000000,0.000000,0.000000,0.000000,-3.045424,-9.351752,-0.835576,0.027446,0.000799,-0.082070,14.820000,183.861862,997.631775
0.000000,0.000000,0.000000,0.000000,-2.798822,-9.251195,-0.670376,0.012790,-0.069014,-0.049296,14.820000,183.861862,997.631775
0.000000,0.000000,0.000000,0.000000,-2.949656,-9.342175,-0.718261,-0.002931,-0.060753,-0.059688,14.820000,183.861862,997.631775
0.000000,0.000000,0.000000,0.000000,-2.978387,-9.315839,-0.770933,-0.027712,0.013856,-0.061286,14.830000,183.846512,997.633606
0.000000,0.000000,0.000000,0.000000,-3.186682,-8.944737,-0.488417,-0.039170,-0.084202,-0.082337,14.830000,183.846512,997.633606
0.000000,0.000000,0.000000,0.000000,-2.614468,-9.284714,-0.823605,-0.087400,-0.131899,0.023715,14.830000,183.846512,997.633606
0.000000,0.000000,0.000000,0.000000,-2.932897,-9.445126,-0.797269,-0.054625,-0.099657,-0.011191,14.830000,183.846512,997.633606
0.000000,0.000000,0.000000,0.000000,-2.724602,-9.294291,-0.761356,-0.094328,-0.074609,-0.043433,14.840000,183.860840,997.631897
0.000000,0.000000,0.000000,0.000000,-3.124433,-9.330204,-1.223437,-0.047697,-0.157479,-0.035173,14.840000,183.860840,997.631897
0.000000,0.000000,0.000000,0.000000,-3.004723,-9.361329,-1.055843,0.056224,-0.266196,-0.081538,14.840000,183.860840,997.631897
0.000000,0.000000,0.000000,0.000000,-2.770091,-9.282320,-0.636858,0.038637,-0.215835,-0.187856,14.840000,183.860840,997.631897
0.000000,0.000000,0.000000,0.000000,-2.525883,-9.342175,-0.488417,0.064750,-0.155881,-0.152683,14.840000,183.864426,997.631470
0.000000,0.000000,0.000000,0.000000,-2.185906,-9.241618,-0.155623,0.151617,-0.210505,-0.049296,14.840000,183.864426,997.631470
0.000000,0.000000,0.000000,0.000000,-2.753332,-9.370906,-0.275333,0.126570,-0.204910,-0.006395,14.840000,183.864426,997.631470
0.000000,0.000000,0.000000,0.000000,-2.437297,-9.454702,0.105345,-0.009859,-0.296040,0.038104,14.840000,183.864426,997.631470
0.000000,0.000000,0.000000,0.000000,-2.533065,-9.392453,0.462081,-0.051960,-0.209706,-0.139360,14.850000,183.851624,997.632996
0.000000,0.000000,0.000000,0.000000,-2.595315,-9.363723,-0.280122,-0.069547,-0.088732,-0.083403,14.850000,183.851624,997.632996
0.000000,0.000000,0.000000,0.000000,-2.396596,-9.052477,-0.378284,0.042900,-0.130567,-0.089531,14.850000,183.851624,997.632996
0.000000,0.000000,0.000000,0.000000,-1.896208,-9.399636,0.521936,0.028511,-0.204110,-0.079139,14.850000,183.869034,997.630920
0.000000,0.000000,0.000000,0.000000,-2.578555,-9.471462,0.339977,0.066349,-0.234221,0.070080,14.860000,183.869034,997.630920
0.000000,0.000000,0.000000,0.000000,-2.382231,-9.071630,0.497994,-0.001332,-0.356527,0.073810,14.860000,183.869034,997.630920
0.000000,0.000000,0.000000,0.000000,-2.786851,-9.320627,0.517148,0.018919,-0.063685,0.027446,14.860000,183.869034,997.630920
0.000000,0.000000,0.000000,0.000000,-2.844312,-9.251195,0.646434,0.075675,0.262998,-0.065283,14.870000,183.854706,997.632629
0.000000,0.000000,0.000000,0.000000,-3.265691,-8.803479,-0.859518,0.206775,0.673351,-0.268861,14.870000,183.854706,997.632629
0.000000,0.000000,0.000000,0.000000,-2.841918,-9.557653,1.541866,0.326150,0.515338,-0.485495,14.870000,183.854706,997.632629
0.000000,0.000000,0.000000,0.000000,-1.261744,-9.715671,2.109292,0.173734,0.200113,-0.475636,14.870000,183.854706,997.632629
0.000000,0.000000,0.000000,0.000000,-1.551443,-9.493010,0.500388,-0.006928,0.160410,-0.243813,14.880000,183.871597,997.630615
0.000000,0.000000,0.000000,0.000000,-3.117251,-10.120291,4.946421,0.003997,0.263531,-0.114046,14.880000,183.871597,997.630615
0.000000,0.000000,0.000000,0.000000,-1.027112,-9.852140,1.426944,-0.036505,-0.054092,-0.225161,14.880000,183.871597,997.630615
0.000000,0.000000,0.000000,0.000000,-1.125275,-9.042900,0.885855,-0.068481,0.096726,-0.078873,14.880000,183.871597,997.630615
0.000000,0.000000,0.000000,0.000000,-1.656788,-9.603143,1.106121,0.042634,-0.014655,-0.144423,14.890000,183.855728,997.632507
0.000000,0.000000,0.000000,0.000000,0.213084,-9.933543,2.250550,0.116977,0.043433,-0.146021,14.890000,183.855728,997.632507
0.000000,0.000000,0.000000,0.000000,-0.881066,-9.543288,0.526724,0.186257,0.119642,-0.245678,14.890000,183.855728,997.632507
0.000000,0.000000,0.000000,0.000000,-0.153229,-9.464279,1.687912,0.120441,0.046364,-0.249675,14.890000,183.855728,997.632507
0.000000,0.000000,0.000000,0.000000,-0.083797,-9.399636,1.630451,0.016254,0.087400,-0.101256,14.900000,183.872620,997.630493
0.000000,0.000000,0.000000,0.000000,-0.414197,-9.600749,1.482011,-0.033041,0.129767,-0.061819,14.900000,183.872620,997.630493
0.000000,0.000000,0.000000,0.000000,-0.047884,-9.495404,1.355118,-0.034374,-0.063152,-0.102855,14.900000,183.872620,997.630493
0.000000,0.000000,0.000000,0.000000,0.119710,-9.392453,2.027889,-0.055158,0.009593,-0.005063,14.900000,183.872620,997.630493
0.000000,0.000000,0.000000,0.000000,-0.043096,-9.078813,1.699883,-0.534790,0.038637,0.204910,14.910000,183.843948,997.633911
0.000000,0.000000,0.000000,0.000000,-1.707066,-9.330204,1.048660,-0.550245,-0.777804,0.121507,14.910000,183.843948,997.633911
0.000000,0.000000,0.000000,0.000000,-1.520318,-9.241618,0.220267,-0.361057,-0.883856,0.042900,14.910000,183.843948,997.633911
0.000000,0.000000,0.000000,0.000000,-0.775721,-10.290278,-0.361524,-0.077008,-0.528662,0.090064,14.910000,183.843948,997.633911
0.000000,0.000000,0.000000,0.000000,-0.368707,-10.060435,-0.988805,0.124438,-0.818040,0.138294,14.910000,183.861862,997.631775
0.000000,0.000000,0.000000,0.000000,-0.859518,-10.481815,-0.363919,0.205443,-0.196916,0.063418,14.910000,183.861862,997.631775
0.000000,0.000000,0.000000,0.000000,-0.656011,-9.287108,0.579397,0.139093,-0.155614,-0.069280,14.910000,183.861862,997.631775
0.000000,0.000000,0.000000,0.000000,-1.144428,-10.048465,1.343147,0.086067,-0.293375,0.218233,14.910000,183.861862,997.631775
0.000000,0.000000,0.000000,0.000000,-1.640028,-9.287108,1.503559,-0.078340,-0.367185,0.151617,14.920000,183.846512,997.633606
0.000000,0.000000,0.000000,0.000000,-1.541866,-10.228029,0.833182,-0.300836,-0.225694,-0.019985,14.920000,183.846512,997.633606
0.000000,0.000000,0.000000,0.000000,-0.895431,-9.622296,-0.517148,-0.172401,-0.012790,-0.078873,14.930000,183.863403,997.631592
0.000000,0.000000,0.000000,0.000000,-1.438915,-9.840169,-0.191536,0.022116,0.030377,-0.070879,14.930000,183.863403,997.631592
0.000000,0.000000,0.000000,0.000000,-1.501164,-9.801862,-0.213084,0.027179,-0.047697,0.017320,14.940000,183.848557,997.633362
0.000000,0.000000,0.000000,0.000000,-1.826776,-9.536105,0.050278,-0.029044,-0.046897,0.025580,14.940000,183.848557,997.633362
0.000000,0.000000,0.000000,0.000000,-1.450886,-9.598354,-0.323217,-0.089531,0.017853,0.027179,14.940000,183.848557,997.633362
0.000000,0.000000,0.000000,0.000000,-1.855506,-9.555259,-0.500388,-0.112181,0.126037,0.025047,14.940000,183.848557,997.633362
0.000000,0.000000,0.000000,0.000000,-2.473210,-9.883265,-0.282516,-0.077274,0.091663,0.111914,14.950000,183.851624,997.632996
0.000000,0.000000,0.000000,0.000000,-1.482011,-9.126697,-0.562637,-0.036239,-0.034907,0.081271,14.950000,183.851624,997.632996
0.000000,0.000000,0.000000,0.000000,-2.573767,-9.768343,-0.950498,0.066349,-0.140159,0.151884,14.950000,183.851624,997.632996
0.000000,0.000000,0.000000,0.000000,-2.281674,-9.378088,-0.438139,0.132965,0.136162,0.047963,14.950000,183.851624,997.632996
0.000000,0.000000,0.000000,0.000000,-2.535460,-9.880871,-0.086191,0.111115,0.051960,-0.111914,14.960000,183.822968,997.636414
0.000000,0.000000,0.000000,0.000000,-2.176329,-9.538500,0.349553,0.097525,0.133764,-0.129767,14.960000,183.822968,997.636414
0.000000,0.000000,0.000000,0.000000,-2.463634,-9.272743,0.189142,-0.003997,-0.171868,-0.160943,14.960000,183.822968,997.636414
0.000000,0.000000,0.000000,0.000000,-1.750161,-9.679757,0.117316,-0.085801,-0.171868,-0.070613,14.960000,183.822968,997.636414
0.000000,0.000000,0.000000,0.000000,-1.786075,-9.366117,0.007183,-0.121773,-0.168671,0.049562,14.970000,183.829117,997.635681
0.000000,0.000000,0.000000,0.000000,-2.200271,-9.763555,-0.033519,-0.171335,0.042101,0.105519,14.970000,183.829117,997.635681
0.000000,0.000000,0.000000,0.000000,-1.908179,-9.787497,-0.560243,-0.184925,0.713320,0.151084,14.970000,183.829117,997.635681
0.000000,0.000000,0.000000,0.000000,-2.947262,-8.611943,-0.770933,-0.201979,1.482064,0.122040,14.980000,183.813751,997.637512
0.000000,0.000000,0.000000,0.000000,-2.896984,-9.859323,-2.140416,-0.262732,-0.031443,-0.081538,14.980000,183.813751,997.637512
0.000000,0.000000,0.000000,0.000000,-2.633622,-10.225636,-1.716643,-0.169737,-0.456184,-0.246744,14.980000,183.813751,997.637512
0.000000,0.000000,0.000000,0.000000,-2.051831,-8.899248,-1.165976,-0.042101,-1.467409,-0.071678,14.980000,183.813751,997.637512
0.000000,0.000000,0.000000,0.000000,-2.059013,-9.976639,0.239420,-0.059421,-3.245247,-0.128435,14.990000,183.812729,997.637634
0.000000,0.000000,0.000000,0.000000,-3.043030,-9.117120,-0.071826,0.303767,-1.174833,0.232888,14.990000,183.812729,997.637634
0.000000,0.000000,0.000000,0.000000,-4.062960,-8.341399,2.406173,-0.025847,-0.947807,-0.075142,14.990000,183.812729,997.637634
0.000000,0.000000,0.000000,0.000000,-2.530671,-9.782708,1.391031,-0.713853,0.515072,-0.293109,14.990000,183.812729,997.637634
0.000000,0.000000,0.000000,0.000000,-2.118869,-10.577583,-1.616086,-0.659761,1.640610,-0.202778,14.990000,183.841400,997.634216
0.000000,0.000000,0.000000,0.000000,-1.659182,-9.461885,-2.102109,-0.150018,1.703761,0.012524,14.990000,183.841400,997.634216
0.000000,0.000000,0.000000,0.000000,-1.900996,-8.722076,-1.893813,0.104986,0.547580,-0.211838,14.990000,183.841400,997.634216
0.000000,0.000000,0.000000,0.000000,-0.122104,-9.279925,-2.118869,0.215035,2.637712,-0.358392,14.990000,183.841400,997.634216
0.000000,0.000000,0.000000,0.000000,-0.727837,-8.817844,-2.707842,-0.017054,1.657930,0.075675,15.000000,183.826553,997.635986
0.000000,0.000000,0.000000,0.000000,-1.345541,-8.947132,-2.760514,-0.186524,1.356827,0.192652,15.000000,183.826553,997.635986
0.000000,0.000000,0.000000,0.000000,-0.433351,-8.944737,-3.703830,-0.366386,0.562769,0.265930,15.000000,183.826553,997.635986
0.000000,0.000000,0.000000,0.000000,-2.274492,-10.924743,-4.498705,-0.381841,-0.089531,0.317357,15.000000,183.826553,997.635986
0.000000,0.000000,0.000000,0.000000,-1.733402,-8.834604,-4.424485,0.507878,0.353862,-0.118309,15.010000,183.857254,997.632324
0.000000,0.000000,0.000000,0.000000,0.031125,-9.246407,-1.970428,0.892649,0.333611,-0.239283,15.010000,183.857254,997.632324
0.000000,0.000000,0.000000,0.000000,-0.770933,-10.486604,-1.060631,0.356793,-0.187323,0.031709,15.010000,183.857254,997.632324
0.000000,0.000000,0.000000,0.000000,-0.797269,-8.595184,-1.122881,-0.112447,0.187323,0.046098,15.010000,183.857254,997.632324
0.000000,0.000000,0.000000,0.000000,-0.610521,-10.529699,-1.479617,-0.194251,0.364254,-0.131899,15.020000,183.845490,997.633728
0.000000,0.000000,0.000000,0.000000,-2.178724,-9.658210,-3.181894,-0.313893,0.154548,-0.117776,15.020000,183.845490,997.633728
0.000000,0.000000,0.000000,0.000000,-0.591368,-9.414001,-3.263297,-0.143890,1.730940,-0.188655,15.020000,183.845490,997.633728
0.000000,0.000000,0.000000,0.000000,0.569820,-9.904813,-2.475605,-0.047430,0.532392,-0.216900,15.020000,183.845490,997.633728
0.000000,0.000000,0.000000,0.000000,0.299275,-9.746795,-2.961627,-0.112980,0.373847,-0.029044,15.030000,183.843948,997.633911
0.000000,0.000000,0.000000,0.000000,0.926556,-9.399636,-2.446874,-0.188922,1.056257,-0.077274,15.030000,183.843948,997.633911
0.000000,0.000000,0.000000,0.000000,0.634463,-9.363723,-3.093309,-0.401825,0.536123,-0.055158,15.030000,183.843948,997.633911
0.000000,0.000000,0.000000,0.000000,0.914585,-9.689334,-4.338294,0.074609,0.123639,-0.045032,15.030000,183.843948,997.633911
0.000000,0.000000,0.000000,0.000000,0.849942,-9.593566,-3.038242,0.111914,-0.086867,0.017587,15.040000,183.874664,997.630249
0.000000,0.000000,0.000000,0.000000,0.770933,-9.311050,-3.201048,0.051161,-0.179063,-0.128435,15.040000,183.874664,997.630249
0.000000,0.000000,0.000000,0.000000,1.520318,-9.239224,-2.789245,0.087133,0.271792,-0.261400,15.040000,183.874664,997.630249
0.000000,0.000000,0.000000,0.000000,1.836353,-9.531317,-3.090914,0.237418,-0.071412,-0.188389,15.040000,183.874664,997.630249
0.000000,0.000000,0.000000,0.000000,1.728614,-9.986216,-2.726996,0.214502,0.099390,0.076208,15.050000,183.859818,997.632019
0.000000,0.000000,0.000000,0.000000,0.979228,-9.861717,-2.722207,0.088998,0.172135,0.124438,15.050000,183.859818,997.632019
0.000000,0.000000,0.000000,0.000000,1.077391,-9.449914,-2.047042,0.054891,0.229691,0.051960,15.050000,183.859818,997.632019
0.000000,0.000000,0.000000,0.000000,0.900220,-9.572019,-2.420538,0.077541,0.255804,-0.038637,15.050000,183.859818,997.632019
0.000000,0.000000,0.000000,0.000000,1.125275,-9.222465,-1.855506,0.083403,0.602205,-0.116444,15.060000,183.845490,997.633728
0.000000,0.000000,0.000000,0.000000,1.364695,-9.806650,-1.747767,-0.054891,0.644573,-0.153749,15.060000,183.845490,997.633728
0.000000,0.000000,0.000000,0.000000,2.109292,-9.665392,-1.508347,-0.142291,0.586750,-0.176931,15.060000,183.845490,997.633728
0.000000,0.000000,0.000000,0.000000,2.018312,-9.464279,-2.291251,-0.138827,0.590747,-0.172668,15.060000,183.845490,997.633728
0.000000,0.000000,0.000000,0.000000,2.154782,-9.418790,-1.881842,0.102588,1.417580,-0.203044,15.070000,183.843948,997.633911
0.000000,0.000000,0.000000,0.000000,1.862689,-9.823410,0.225055,0.166806,1.386138,-0.176398,15.070000,183.843948,997.633911
0.000000,0.000000,0.000000,0.000000,3.260903,-10.127473,-1.256956,-0.266995,0.178796,-0.195051,15.070000,183.843948,997.633911
0.000000,0.000000,0.000000,0.000000,3.536236,-9.720459,-1.570596,-0.136429,1.273158,-0.076741,15.070000,183.843948,997.633911
0.000000,0.000000,0.000000,0.000000,2.647987,-9.516952,-0.323217,-0.027712,1.045066,0.045032,15.080000,183.891037,997.628296
0.000000,0.000000,0.000000,0.000000,2.875436,-9.512163,-0.644040,0.211838,0.489492,0.141758,15.080000,183.891037,997.628296
0.000000,0.000000,0.000000,0.000000,1.857901,-9.569624,0.617704,0.213703,0.419945,-0.040236,15.080000,183.891037,997.628296
0.000000,0.000000,0.000000,0.000000,2.252944,-8.951921,0.876278,0.079406,0.304833,-0.215568,15.080000,183.891037,997.628296
0.000000,0.000000,0.000000,0.000000,3.239355,-9.325416,0.988805,-0.045032,0.240083,-0.147354,15.090000,183.890015,997.628418
0.000000,0.000000,0.000000,0.000000,3.270479,-9.660604,0.926556,-0.196649,0.391700,0.021051,15.090000,183.890015,997.628418
0.000000,0.000000,0.000000,0.000000,2.858677,-9.248801,1.010353,-0.294708,0.489225,0.067149,15.090000,183.890015,997.628418
0.000000,0.000000,0.000000,0.000000,1.848324,-9.126697,0.000000,-0.386637,0.227292,-0.026380,15.090000,183.890015,997.628418
0.000000,0.000000,0.000000,0.000000,2.516306,-9.809045,-1.429338,-0.389568,-0.096726,-0.091397,15.100000,183.875687,997.630127
0.000000,0.000000,0.000000,0.000000,2.758120,-9.713276,-1.089362,-0.255271,-0.214236,-0.048496,15.100000,183.875687,997.630127
0.000000,0.000000,0.000000,0.000000,4.213795,-9.320627,0.873884,-0.179063,-0.480432,0.150285,15.100000,183.875687,997.630127
0.000000,0.000000,0.000000,0.000000,1.544260,-10.129868,-0.974440,-0.099390,0.107118,0.017054,15.100000,183.875687,997.630127
0.000000,0.000000,0.000000,0.000000,2.372654,-9.564836,-1.034295,-0.120441,-0.110315,-0.114579,15.110000,183.887970,997.628662
0.000000,0.000000,0.000000,0.000000,2.375048,-9.617508,-1.462857,-0.088998,-0.127636,0.075142,15.110000,183.887970,997.628662
0.000000,0.000000,0.000000,0.000000,2.020706,-9.674969,-0.883460,-0.108184,-0.149219,0.097259,15.110000,183.887970,997.628662
0.000000,0.000000,0.000000,0.000000,2.482787,-9.706094,-1.163582,-0.073011,0.246211,-0.160144,15.110000,183.887970,997.628662
0.000000,0.000000,0.000000,0.000000,2.324770,-9.548077,-0.893037,0.114046,0.330413,-0.021850,15.120000,183.887451,997.628723
0.000000,0.000000,0.000000,0.000000,2.327164,-9.418790,-0.624887,-0.058089,0.056224,-0.035173,15.120000,183.887451,997.628723
0.000000,0.000000,0.000000,0.000000,2.863465,-9.406818,-1.312023,-0.059155,0.043700,0.064217,15.120000,183.887451,997.628723
0.000000,0.000000,0.000000,0.000000,2.513912,-10.105926,-1.970428,0.141758,0.127103,0.073011,15.120000,183.887451,997.628723
0.000000,0.000000,0.000000,0.000000,1.824382,-9.203311,0.007183,0.122040,-0.062619,-0.115645,15.130000,183.885925,997.628906
0.000000,0.000000,0.000000,0.000000,2.734178,-9.397242,-0.134075,-0.020251,-0.160144,-0.157479,15.130000,183.885925,997.628906
0.000000,0.000000,0.000000,0.000000,2.664747,-9.751583,-0.418985,-0.057822,-0.083936,-0.044766,15.130000,183.885925,997.628906
0.000000,0.000000,0.000000,0.000000,2.384625,-9.538500,-0.682347,-0.031975,-0.057289,-0.051960,15.130000,183.885925,997.628906
0.000000,0.000000,0.000000,0.000000,2.458845,-9.598354,-0.677559,-0.020251,-0.102588,-0.042368,15.130000,183.887451,997.628723
0.000000,0.000000,0.000000,0.000000,2.597709,-9.622296,-0.732626,-0.054625,-0.172668,-0.028245,15.130000,183.887451,997.628723
0.000000,0.000000,0.000000,0.000000,2.477999,-9.528923,-0.775721,-0.018386,-0.252340,-0.005329,15.130000,183.887451,997.628723
0.000000,0.000000,0.000000,0.000000,2.537854,-9.744401,-0.823605,0.038637,-0.144156,-0.001599,15.130000,183.887451,997.628723
0.000000,0.000000,0.000000,0.000000,2.367866,-9.689334,-0.641646,0.059155,0.002398,-0.015188,15.140000,183.900253,997.627197
0.000000,0.000000,0.000000,0.000000,2.267309,-9.509769,-0.517148,-0.037571,-0.076741,0.003730,15.140000,183.900253,997.627197
0.000000,0.000000,0.000000,0.000000,2.343924,-9.512163,-0.622492,-0.018119,-0.052227,0.023982,15.140000,183.900253,997.627197
0.000000,0.000000,0.000000,0.000000,2.219425,-9.672575,-0.557849,-0.021317,-0.154548,0.007194,15.140000,183.900253,997.627197
0.000000,0.000000,0.000000,0.000000,2.006341,-9.763555,-0.902614,-0.062619,-0.099390,-0.009060,15.150000,183.899231,997.627319
0.000000,0.000000,0.000000,0.000000,2.236184,-9.629479,-0.636858,-0.070346,-0.163874,0.016521,15.150000,183.899231,997.627319
0.000000,0.000000,0.000000,0.000000,2.001553,-9.756371,-0.780510,-0.057822,-0.104986,0.051960,15.150000,183.899231,997.627319
0.000000,0.000000,0.000000,0.000000,1.956063,-9.615114,-0.835576,-0.030643,-0.069014,0.027446,15.150000,183.899231,997.627319
0.000000,0.000000,0.000000,0.000000,1.975216,-9.512163,-0.751779,-0.064217,-0.203577,0.025847,15.160000,183.897690,997.627502
0.000000,0.000000,0.000000,0.000000,1.654393,-9.679757,-1.443704,-0.110848,-0.302701,0.062619,15.160000,183.897690,997.627502
0.000000,0.000000,0.000000,0.000000,1.618480,-9.801862,-1.379060,-0.050628,-0.152949,-0.037305,15.160000,183.897690,997.627502
0.000000,0.000000,0.000000,0.000000,1.551443,-9.660604,-1.304840,-0.063685,-0.170536,0.020784,15.160000,183.897690,997.627502
0.000000,0.000000,0.000000,0.000000,1.587356,-9.509769,-1.434127,-0.049828,-0.306965,-0.041302,15.170000,183.911514,997.625916
0.000000,0.000000,0.000000,0.000000,0.780510,-10.180145,-1.833959,-0.087133,-0.088199,0.043700,15.170000,183.911514,997.625916
0.000000,0.000000,0.000000,0.000000,1.745373,-9.636662,-1.297657,-0.031176,-0.131366,-0.026380,15.170000,183.911514,997.625916
0.000000,0.000000,0.000000,0.000000,1.244985,-9.684546,-1.441309,-0.079406,-0.302435,0.029577,15.170000,183.911514,997.625916
0.000000,0.000000,0.000000,0.000000,1.278504,-9.842564,-2.087744,-0.108450,-0.250208,0.051694,15.180000,183.926865,997.624084
0.000000,0.000000,0.000000,0.000000,1.254562,-9.897630,-1.711854,0.007994,-0.403424,0.044499,15.180000,183.926865,997.624084
0.000000,0.000000,0.000000,0.000000,1.424550,-9.560047,-1.833959,-0.097259,0.150818,0.068481,15.180000,183.926865,997.624084
0.000000,0.000000,0.000000,0.000000,1.163582,-9.097966,-2.257732,-0.094594,0.053559,0.014123,15.180000,183.926865,997.624084
0.000000,0.000000,0.000000,0.000000,1.757344,-9.900024,-2.102109,0.058622,0.180662,0.180395,15.200000,183.907410,997.626404
0.000000,0.000000,0.000000,0.000000,0.481235,-9.706094,-1.295263,-0.071678,0.553443,0.216634,15.200000,183.907410,997.626404
0.000000,0.000000,0.000000,0.000000,0.648829,-9.330204,-0.122104,-0.039436,0.533458,0.098858,15.200000,183.907410,997.626404
0.000000,0.000000,0.000000,0.000000,0.354342,-9.888053,-2.300828,0.060487,0.247544,-0.073810,15.200000,183.907410,997.626404
0.000000,0.000000,0.000000,0.000000,0.150835,-10.553641,-3.948039,0.045565,0.206508,-0.102588,15.210000,183.920715,997.624817
0.000000,0.000000,0.000000,0.000000,0.502782,-9.406818,-1.800440,0.050628,0.064750,0.013323,15.210000,183.920715,997.624817
0.000000,0.000000,0.000000,0.000000,0.402226,-9.971850,-1.599327,0.010392,-0.067415,-0.095926,15.210000,183.920715,997.624817
0.000000,0.000000,0.000000,0.000000,0.320823,-9.598354,-1.601721,0.005862,0.196116,-0.220098,15.210000,183.920715,997.624817
0.000000,0.000000,0.000000,0.000000,1.479617,-10.443508,-2.121263,-0.030643,-0.060487,-0.127636,15.220000,183.919189,997.625000
0.000000,0.000000,0.000000,0.000000,1.649605,-9.660604,-3.057395,0.235286,0.099657,0.088998,15.220000,183.919189,997.625000
0.000000,0.000000,0.000000,0.000000,1.139640,-9.775525,-0.948104,0.376511,1.400527,0.298971,15.220000,183.919189,997.625000
0.000000,0.000000,0.000000,0.000000,1.280898,-9.603143,-1.043872,0.045565,2.110116,0.350132,15.220000,183.919189,997.625000
0.000000,0.000000,0.000000,0.000000,-2.590526,-9.816227,1.903390,-0.218766,1.081571,0.416481,15.230000,183.888474,997.628601
0.000000,0.000000,0.000000,0.000000,-1.312023,-9.227253,-0.019154,-0.243813,-1.638211,0.399694,15.230000,183.888474,997.628601
0.000000,0.000000,0.000000,0.000000,-2.829947,-9.512163,-1.517924,-0.104453,-2.781868,-0.021317,15.230000,183.888474,997.628601
0.000000,0.000000,0.000000,0.000000,-0.392649,-9.334992,-2.073379,-0.239550,-2.031776,-0.511342,15.230000,183.888474,997.628601
0.000000,0.000000,0.000000,0.000000,0.603339,-9.409213,-2.195483,-0.089531,-0.268328,-0.281118,15.240000,183.917648,997.625183
0.000000,0.000000,0.000000,0.000000,-0.438139,-10.321404,-0.459687,-0.075142,-1.597176,0.054358,15.240000,183.917648,997.625183
0.000000,0.000000,0.000000,0.000000,-0.620098,-10.409989,-1.735796,0.037038,0.014389,0.115112,15.240000,183.917648,997.625183
0.000000,0.000000,0.000000,0.000000,-0.598550,-9.069236,1.043872,-0.267262,0.678680,0.045832,15.240000,183.917648,997.625183
0.000000,0.000000,0.000000,0.000000,0.208296,-9.030929,-2.288857,-0.237152,0.933951,-0.086600,15.250000,183.944260,997.622009
0.000000,0.000000,0.000000,0.000000,-1.666364,-10.826580,-1.747767,0.421011,1.130600,0.025580,15.250000,183.944260,997.622009
0.000000,0.000000,0.000000,0.000000,0.454898,-10.005369,-0.749385,-0.081804,0.535856,-0.111914,15.260000,183.925842,997.624207
0.000000,0.000000,0.000000,0.000000,0.768539,-10.635044,-1.934515,-0.357859,0.410885,-0.104187,15.270000,183.938126,997.622742
0.000000,0.000000,0.000000,0.000000,0.174777,-10.819398,-1.058237,-0.385838,0.027712,-0.058355,15.270000,183.938126,997.622742
0.000000,0.000000,0.000000,0.000000,0.452504,-10.374076,-2.889802,-0.171335,0.158279,-0.022916,15.270000,183.938126,997.622742
0.000000,0.000000,0.000000,0.000000,0.059855,-9.734824,-1.963245,0.065283,-0.092462,0.110315,15.270000,183.938126,997.622742
0.000000,0.000000,0.000000,0.000000,-0.337582,-9.634268,-1.580173,0.156147,0.036505,-0.000799,15.280000,183.937607,997.622803
0.000000,0.000000,0.000000,0.000000,-0.167594,-9.567230,-1.115698,0.092729,0.042634,-0.183060,15.280000,183.937607,997.622803
0.000000,0.000000,0.000000,0.000000,0.181959,-10.000581,-1.544260,-0.029311,-0.564368,-0.225694,15.280000,183.937607,997.622803
0.000000,0.000000,0.000000,0.000000,0.550666,-9.071630,-2.674323,-0.143090,-1.061320,-0.106319,15.280000,183.937607,997.622803
0.000000,0.000000,0.000000,0.000000,0.689530,-10.117896,0.371101,-0.292309,-0.604870,-0.198781,15.290000,183.938629,997.622681
0.000000,0.000000,0.000000,0.000000,0.840365,-9.974244,-1.924938,-0.389302,-0.058888,0.018919,15.290000,183.938629,997.622681
0.000000,0.000000,0.000000,0.000000,0.110133,-9.224859,-3.169923,-0.108717,-0.143357,0.216368,15.290000,183.938629,997.622681
0.000000,0.000000,0.000000,0.000000,-0.093374,-8.860941,-1.908179,0.256870,-0.165207,0.067415,15.290000,183.938629,997.622681
0.000000,0.000000,0.000000,0.000000,-0.332794,-10.077195,-1.805228,0.267795,0.005329,-0.185458,15.300000,183.933517,997.623291
0.000000,0.000000,0.000000,0.000000,0.011971,-10.058042,-1.853112,0.089531,-0.313093,-0.387170,15.300000,183.933517,997.623291
0.000000,0.000000,0.000000,0.000000,0.318429,-9.557653,-2.207454,-0.244613,-0.304034,-0.095394,15.300000,183.933517,997.623291
0.000000,0.000000,0.000000,0.000000,0.907402,-9.981427,-2.092532,-0.182260,-0.369850,-0.021317,15.300000,183.933517,997.623291
0.000000,0.000000,0.000000,0.000000,0.275333,-9.983821,-2.138022,0.024515,-0.153749,-0.046364,15.310000,183.932495,997.623413
0.000000,0.000000,0.000000,0.000000,0.292093,-9.761160,-1.666364,0.058355,0.237152,0.020518,15.310000,183.932495,997.623413
0.000000,0.000000,0.000000,0.000000,0.730232,-10.055647,-2.149993,-0.023982,0.328282,0.100989,15.310000,183.932495,997.623413
0.000000,0.000000,0.000000,0.000000,0.375890,-10.285490,-2.114080,-0.045032,-0.010392,0.074876,15.310000,183.932495,997.623413
0.000000,0.000000,0.000000,0.000000,0.100556,-9.713276,-1.702277,-0.003730,-0.041035,-0.056490,15.330000,183.901779,997.627014
0.000000,0.000000,0.000000,0.000000,0.090980,-9.765948,-1.539472,0.016254,-0.098591,-0.142025,15.330000,183.901779,997.627014
0.000000,0.000000,0.000000,0.000000,0.490811,-9.078813,-1.173159,-0.034374,-0.228092,-0.101256,15.330000,183.901779,997.627014
0.000000,0.000000,0.000000,0.000000,0.600945,-9.603143,-1.944092,-0.035440,0.046364,0.030110,15.330000,183.901779,997.627014
0.000000,0.000000,0.000000,0.000000,0.277727,-9.900024,-1.778892,-0.019718,-0.146021,0.043167,15.340000,183.915085,997.625488
0.000000,0.000000,0.000000,0.000000,0.234632,-9.667787,-1.580173,0.029311,-0.096992,0.000266,15.340000,183.915085,997.625488
0.000000,0.000000,0.000000,0.000000,0.308852,-9.528923,-1.333570,-0.037838,-0.184126,-0.089798,15.340000,183.915085,997.625488
0.000000,0.000000,0.000000,0.000000,0.004788,-10.019734,-1.316811,-0.252606,0.056757,-0.091930,15.340000,183.915085,997.625488
0.000000,0.000000,0.000000,0.000000,0.260968,-9.615114,-2.887407,-0.230490,-0.049296,-0.078606,15.350000,183.883865,997.629150
0.000000,0.000000,0.000000,0.000000,0.076614,-9.595961,-3.052607,-0.156413,-0.298971,-0.096193,15.350000,183.883865,997.629150
0.000000,0.000000,0.000000,0.000000,0.433351,-9.567230,-1.891419,0.025047,-0.187057,-0.162542,15.350000,183.883865,997.629150
0.000000,0.000000,0.000000,0.000000,1.108515,-9.272743,-2.851494,0.070080,-0.029577,-0.098858,15.350000,183.883865,997.629150
0.000000,0.000000,0.000000,0.000000,0.921768,-9.856929,-2.564190,-0.043700,0.120708,0.050095,15.360000,183.896149,997.627686
0.000000,0.000000,0.000000,0.000000,0.074220,-9.911995,-2.020706,0.010126,0.013590,0.030110,15.360000,183.896149,997.627686
0.000000,0.000000,0.000000,0.000000,0.320823,-9.703699,-2.183512,0.027446,0.025580,-0.006662,15.360000,183.896149,997.627686
0.000000,0.000000,0.000000,0.000000,-0.253785,-9.323022,-1.426944,-0.093795,0.312827,-0.047697,15.360000,183.896149,997.627686
0.000000,0.000000,0.000000,0.000000,0.689530,-9.512163,-1.410185,-0.029844,0.623522,-0.112980,15.370000,183.891037,997.628296
0.000000,0.000000,0.000000,0.000000,0.545878,-9.873688,-0.842759,0.011458,2.180729,0.063152,15.370000,183.891037,997.628296
0.000000,0.000000,0.000000,0.000000,2.068590,-8.504205,-2.126051,0.003997,2.736570,0.333877,15.370000,183.891037,997.628296
0.000000,0.000000,0.000000,0.000000,1.625663,-9.373300,-2.315193,-0.123905,2.788796,0.616061,15.370000,183.891037,997.628296
0.000000,0.000000,0.000000,0.000000,0.691924,-10.692505,-3.081338,-0.068747,1.087700,0.523332,15.380000,183.918671,997.625061
0.000000,0.000000,0.000000,0.000000,-0.325611,-9.428367,-1.860295,0.046631,0.529461,0.247544,15.380000,183.918671,997.625061
0.000000,0.000000,0.000000,0.000000,0.622492,-10.773908,-4.103662,0.039703,-0.250208,-0.061020,15.380000,183.918671,997.625061
0.000000,0.000000,0.000000,0.000000,-0.057461,-10.967838,-1.716643,-0.089531,0.097792,-0.243280,15.380000,183.918671,997.625061
0.000000,0.000000,0.000000,0.000000,1.233014,-10.635044,-2.832341,-0.257136,0.129501,0.003730,15.390000,183.871597,997.630615
0.000000,0.000000,0.000000,0.000000,-0.672771,-9.495404,-2.918532,-0.039436,0.014655,0.427672,15.390000,183.871597,997.630615
0.000000,0.000000,0.000000,0.000000,-1.424550,-9.222465,-2.190695,-0.061020,0.939547,0.445259,15.390000,183.871597,997.630615
0.000000,0.000000,0.000000,0.000000,-1.551443,-9.502586,-3.742137,-0.165740,1.206276,0.116444,15.390000,183.871597,997.630615
0.000000,0.000000,0.000000,0.000000,-0.181959,-10.110714,-3.514688,0.057822,0.904640,-0.188922,15.410000,183.871597,997.630615
0.000000,0.000000,0.000000,0.000000,0.383072,-8.880095,-2.695871,0.220897,1.457816,-0.092196,15.410000,183.871597,997.630615
0.000000,0.000000,0.000000,0.000000,-0.294487,-9.878476,-2.176329,0.144689,1.580122,0.152683,15.410000,183.871597,997.630615
0.000000,0.000000,0.000000,0.000000,-0.067038,-10.187328,-2.329558,0.155614,1.463945,0.053292,15.410000,183.871597,997.630615
0.000000,0.000000,0.000000,0.000000,-0.162806,-10.000581,-2.470816,0.181994,1.511642,0.051694,15.420000,183.851624,997.632996
0.000000,0.000000,0.000000,0.000000,0.447716,-9.409213,-1.335965,0.201446,0.990708,-0.034374,15.420000,183.851624,997.632996
0.000000,0.000000,0.000000,0.000000,0.969652,-9.631873,-0.687136,0.191587,-0.090331,-0.107917,15.420000,183.851624,997.632996
0.000000,0.000000,0.000000,0.000000,0.359130,-10.199299,-0.924162,0.219299,-0.778070,-0.028511,15.420000,183.851624,997.632996
0.000000,0.000000,0.000000,0.000000,-0.002394,-10.402806,-1.094150,0.232089,-1.061320,0.002931,15.430000,183.892578,997.628113
0.000000,0.000000,0.000000,0.000000,0.407014,-8.803479,-0.234632,0.188922,-0.472171,-0.002398,15.430000,183.892578,997.628113
0.000000,0.000000,0.000000,0.000000,0.514753,-9.624691,0.239420,0.013590,-0.749825,-0.111381,15.430000,183.892578,997.628113
0.000000,0.000000,0.000000,0.000000,1.221043,-9.732430,0.189142,-0.044766,-0.567565,-0.197182,15.430000,183.892578,997.628113
0.000000,0.000000,0.000000,0.000000,2.236184,-10.364499,0.167594,0.137761,-0.559838,-0.148420,15.440000,183.887451,997.628723
0.000000,0.000000,0.000000,0.000000,2.092532,-9.299079,0.524330,0.223562,-0.868401,-0.212104,15.440000,183.887451,997.628723
0.000000,0.000000,0.000000,0.000000,2.200271,-9.148245,0.588974,0.206508,-0.735703,-0.296040,15.440000,183.887451,997.628723
0.000000,0.000000,0.000000,0.000000,2.322376,-8.396465,-0.011971,0.163342,-0.683476,-0.293109,15.440000,183.887451,997.628723
0.000000,0.000000,0.000000,0.000000,1.644817,-8.973468,-0.282516,0.120441,-0.429804,-0.180395,15.450000,183.871078,997.630676
0.000000,0.000000,0.000000,0.000000,2.054225,-9.641450,0.399832,0.084202,-0.113513,0.197182,15.450000,183.871078,997.630676
0.000000,0.000000,0.000000,0.000000,0.876278,-10.081984,0.644040,-0.165473,-0.004263,0.553975,15.450000,183.871078,997.630676
0.000000,0.000000,0.000000,0.000000,0.445322,-10.172963,-0.287304,-0.383972,-0.144689,0.511874,15.450000,183.871078,997.630676
0.000000,0.000000,0.000000,0.000000,-0.189142,-10.251971,-1.213860,-0.190521,-0.500949,0.332545,15.460000,183.854706,997.632629
0.000000,0.000000,0.000000,0.000000,-0.378284,-11.171345,-1.132457,-0.450055,-0.055424,0.154015,15.460000,183.854706,997.632629
0.000000,0.000000,0.000000,0.000000,-0.153229,-9.615114,-2.413355,-0.322153,-0.162276,0.069547,15.460000,183.854706,997.632629
0.000000,0.000000,0.000000,0.000000,-0.641646,-9.555259,-2.923320,-0.046631,0.247277,-0.010126,15.460000,183.854706,997.632629
0.000000,0.000000,0.000000,0.000000,-0.735020,-9.861717,-2.585738,0.140159,-0.330413,-0.070613,15.480000,183.816315,997.637207
0.000000,0.000000,0.000000,0.000000,-0.055067,-9.674969,-1.252167,0.251807,-0.391966,-0.102055,15.480000,183.816315,997.637207
0.000000,0.000000,0.000000,0.000000,-0.011971,-9.801862,0.296881,0.111381,-0.555841,-0.073810,15.480000,183.816315,997.637207
0.000000,0.000000,0.000000,0.000000,-0.445322,-9.730036,0.031125,-0.098325,-0.444459,0.042368,15.480000,183.816315,997.637207
0.000000,0.000000,0.000000,0.000000,-0.529119,-9.959879,-1.161188,-0.085801,-0.799920,-0.059954,15.490000,183.800964,997.639038
0.000000,0.000000,0.000000,0.000000,-0.316035,-9.756371,-0.696713,0.094328,-0.229158,-0.097525,15.490000,183.800964,997.639038
0.000000,0.000000,0.000000,0.000000,-0.019154,-9.844957,-0.452504,0.055691,0.585685,-0.100190,15.490000,183.800964,997.639038
0.000000,0.000000,0.000000,0.000000,-0.083797,-9.880871,-1.309628,-0.207841,0.432735,-0.211038,15.500000,183.797897,997.639404
0.000000,0.000000,0.000000,0.000000,0.229843,-9.718064,-1.443704,-0.079672,0.204910,-0.160144,15.500000,183.797897,997.639404
0.000000,0.000000,0.000000,0.000000,0.955287,-9.840169,-1.628057,0.059421,0.291243,-0.108450,15.500000,183.797897,997.639404
0.000000,0.000000,0.000000,0.000000,0.435745,-9.749189,-1.060631,0.141225,-0.085801,-0.019718,15.500000,183.797897,997.639404
0.000000,0.000000,0.000000,0.000000,0.421380,-9.868899,-0.713472,0.102588,0.234753,0.026380,15.520000,183.792267,997.640076
0.000000,0.000000,0.000000,0.000000,0.292093,-9.861717,-0.636858,0.036772,0.121773,0.005596,15.520000,183.792267,997.640076
0.000000,0.000000,0.000000,0.000000,0.545878,-9.825804,-0.282516,0.012790,0.304034,-0.080472,15.520000,183.792267,997.640076
0.000000,0.000000,0.000000,0.000000,0.373495,-9.866506,-0.071826,-0.119109,-0.077541,-0.088199,15.520000,183.792267,997.640076
0.000000,0.000000,0.000000,0.000000,0.414197,-9.804255,-0.845153,-0.213969,-0.078340,-0.137495,15.530000,183.775375,997.642029
0.000000,0.000000,0.000000,0.000000,0.598550,-9.792285,-1.436521,-0.146288,-0.050628,-0.160677,15.530000,183.775375,997.642029
0.000000,0.000000,0.000000,0.000000,0.902614,-9.789890,-1.601721,-0.012524,-0.165473,-0.098858,15.530000,183.775375,997.642029
0.000000,0.000000,0.000000,0.000000,0.991199,-9.809045,-1.161188,0.023449,-0.037038,-0.084469,15.530000,183.775375,997.642029
0.000000,0.000000,0.000000,0.000000,0.742203,-9.832987,-0.742203,0.003730,-0.180662,-0.090331,15.540000,183.783554,997.641113
0.000000,0.000000,0.000000,0.000000,0.878672,-9.813833,-0.945710,-0.045832,-0.163342,-0.123639,15.540000,183.783554,997.641113
0.000000,0.000000,0.000000,0.000000,1.132457,-9.813833,-1.125275,-0.061286,-0.224628,-0.108717,15.540000,183.783554,997.641113
0.000000,0.000000,0.000000,0.000000,1.273715,-9.780313,-1.393425,0.006129,-0.143357,-0.055957,15.540000,183.783554,997.641113
0.000000,0.000000,0.000000,0.000000,0.979228,-9.789890,-1.244985,0.038637,-0.170536,-0.057023,15.560000,183.733398,997.647034
0.000000,0.000000,0.000000,0.000000,1.027112,-9.979033,-0.895431,0.032242,0.039170,-0.096193,15.560000,183.733398,997.647034
0.000000,0.000000,0.000000,0.000000,1.091756,-9.828198,-0.730232,-0.003198,-0.034107,-0.120974,15.560000,183.733398,997.647034
0.000000,0.000000,0.000000,0.000000,1.580173,-9.782708,-0.943315,-0.042368,-0.110848,-0.078606,15.560000,183.733398,997.647034
0.000000,0.000000,0.000000,0.000000,1.472434,-9.780313,-1.053449,-0.077008,0.087666,-0.025047,15.570000,183.731873,997.647217
0.000000,0.000000,0.000000,0.000000,1.256956,-9.519346,-1.187524,-0.065550,-0.035706,0.009326,15.570000,183.731873,997.647217
0.000000,0.000000,0.000000,0.000000,1.323994,-9.739613,-0.940921,-0.048496,0.104453,0.007194,15.570000,183.731873,997.647217
0.000000,0.000000,0.000000,0.000000,1.106121,-9.761160,-1.096544,-0.061020,0.108184,0.039436,15.570000,183.731873,997.647217
0.000000,0.000000,0.000000,0.000000,1.022324,-9.742006,-1.482011,-0.078074,-0.033308,0.033574,15.580000,183.727783,997.647705
0.000000,0.000000,0.000000,0.000000,0.837971,-9.627085,-1.458069,-0.031975,0.157479,-0.000533,15.580000,183.727783,997.647705
0.000000,0.000000,0.000000,0.000000,0.797269,-9.746795,-1.209072,-0.024248,0.028511,-0.063418,15.580000,183.727783,997.647705
0.000000,0.000000,0.000000,0.000000,1.335965,-9.911995,-1.448492,-0.003198,0.158012,-0.039170,15.580000,183.727783,997.647705
0.000000,0.000000,0.000000,0.000000,1.067814,-9.701305,-1.335965,0.001066,0.125504,-0.021317,15.590000,183.735962,997.646729
0.000000,0.000000,0.000000,0.000000,0.938527,-9.720459,-1.086968,0.007194,-0.040502,-0.002931,15.590000,183.735962,997.646729
0.000000,0.000000,0.000000,0.000000,1.096544,-9.749189,-1.091756,-0.024248,-0.039170,-0.034374,15.590000,183.735962,997.646729
0.000000,0.000000,0.000000,0.000000,0.852336,-10.278308,-1.254562,-0.055957,-0.128968,-0.048763,15.590000,183.735962,997.646729
0.000000,0.000000,0.000000,0.000000,0.897826,-9.794679,-1.201889,-0.085268,-0.244346,-0.042368,15.610000,183.745178,997.645630
0.000000,0.000000,0.000000,0.000000,1.003170,-9.660604,-1.776498,-0.031443,0.071145,-0.052493,15.610000,183.745178,997.645630
0.000000,0.000000,0.000000,0.000000,1.180341,-9.806650,-1.367089,-0.000799,0.040769,-0.051427,15.610000,183.745178,997.645630
0.000000,0.000000,0.000000,0.000000,1.323994,-9.859323,-1.264138,-0.018119,-0.140959,0.013856,15.610000,183.745178,997.645630
0.000000,0.000000,0.000000,0.000000,0.617704,-9.734824,-1.242591,-0.053559,-0.108450,-0.003198,15.620000,183.726242,997.647888
0.000000,0.000000,0.000000,0.000000,0.907402,-9.880871,-1.460463,-0.059954,0.017587,-0.047963,15.620000,183.726242,997.647888
0.000000,0.000000,0.000000,0.000000,0.713472,-9.837775,-1.297657,-0.051427,-0.137495,-0.042634,15.620000,183.726242,997.647888
0.000000,0.000000,0.000000,0.000000,0.969652,-9.756371,-1.781286,-0.045565,-0.075675,-0.060487,15.620000,183.726242,997.647888
0.000000,0.000000,0.000000,0.000000,0.964863,-9.782708,-1.628057,-0.027179,-0.018386,-0.061286,15.630000,183.721115,997.648499
0.000000,0.000000,0.000000,0.000000,1.053449,-9.799467,-1.704672,-0.016787,-0.035972,-0.058622,15.630000,183.721115,997.648499
0.000000,0.000000,0.000000,0.000000,1.036689,-9.775525,-1.520318,-0.007461,-0.060487,-0.048496,15.630000,183.721115,997.648499
0.000000,0.000000,0.000000,0.000000,1.070208,-9.768343,-1.580173,-0.012790,-0.015455,-0.047697,15.630000,183.721115,997.648499
0.000000,0.000000,0.000000,0.000000,1.165976,-9.548077,-1.596933,-0.036239,-0.047164,-0.048496,15.650000,183.686325,997.652649
0.000000,0.000000,0.000000,0.000000,1.003170,-9.830592,-1.556231,-0.038904,-0.086867,-0.045299,15.650000,183.686325,997.652649
0.000000,0.000000,0.000000,0.000000,1.063026,-9.646238,-1.795651,-0.021583,0.006129,-0.037038,15.650000,183.686325,997.652649
0.000000,0.000000,0.000000,0.000000,0.749385,-9.813833,-1.604115,-0.022916,-0.050361,-0.041302,15.660000,183.681198,997.653259
0.000000,0.000000,0.000000,0.000000,1.122881,-9.787497,-1.575385,-0.016254,-0.016787,-0.029844,15.680000,183.677109,997.653748
0.000000,0.000000,0.000000,0.000000,1.055843,-9.773131,-1.805228,-0.041302,-0.027979,-0.014123,15.680000,183.677109,997.653748
0.000000,0.000000,0.000000,0.000000,1.074997,-9.830592,-1.762132,-0.017587,0.004263,0.008793,15.680000,183.677109,997.653748
0.000000,0.000000,0.000000,0.000000,0.804452,-9.742006,-1.709460,-0.014922,-0.040769,0.005862,15.680000,183.677109,997.653748
0.000000,0.000000,0.000000,0.000000,0.612916,-9.770737,-1.663970,-0.015455,0.004530,-0.025847,15.690000,183.685806,997.652710
0.000000,0.000000,0.000000,0.000000,0.797269,-9.739613,-1.754950,-0.020784,-0.052760,-0.058622,15.690000,183.685806,997.652710
0.000000,0.000000,0.000000,0.000000,0.991199,-9.871294,-1.850718,0.007994,0.030910,-0.046364,15.690000,183.685806,997.652710
0.000000,0.000000,0.000000,0.000000,0.995988,-9.832987,-1.769315,0.020518,-0.033574,-0.027179,15.690000,183.685806,997.652710
0.000000,0.000000,0.000000,0.000000,0.684742,-9.806650,-1.431733,0.002132,-0.050894,-0.050894,15.700000,183.647934,997.657166
0.000000,0.000000,0.000000,0.000000,0.962469,-9.861717,-1.584962,-0.014922,0.050894,-0.054625,15.700000,183.647934,997.657166
0.000000,0.000000,0.000000,0.000000,1.005565,-9.720459,-1.584962,-0.027712,-0.044499,-0.037305,15.700000,183.647934,997.657166
0.000000,0.000000,0.000000,0.000000,0.871489,-9.768343,-1.604115,-0.022383,-0.060221,-0.017587,15.700000,183.647934,997.657166
0.000000,0.000000,0.000000,0.000000,0.960075,-9.746795,-1.659182,-0.014655,0.022649,-0.033308,15.720000,183.615692,997.661011
0.000000,0.000000,0.000000,0.000000,0.905008,-9.765948,-1.584962,-0.012524,-0.015455,-0.022116,15.720000,183.615692,997.661011
0.000000,0.000000,0.000000,0.000000,0.866701,-9.797073,-1.656788,-0.007727,0.008260,-0.028778,15.720000,183.615692,997.661011
0.000000,0.000000,0.000000,0.000000,0.792481,-9.765948,-1.419762,-0.024515,0.003464,-0.043700,15.730000,183.611084,997.661560
0.000000,0.000000,0.000000,0.000000,0.723049,-9.720459,-1.379060,-0.057556,-0.081005,-0.052760,15.730000,183.611084,997.661560
0.000000,0.000000,0.000000,0.000000,1.024718,-9.902418,-1.618480,-0.084202,0.018119,-0.044233,15.730000,183.611084,997.661560
0.000000,0.000000,0.000000,0.000000,0.964863,-9.765948,-1.795651,-0.109250,-0.098858,-0.020518,15.730000,183.611084,997.661560
0.000000,0.000000,0.000000,0.000000,0.756568,-9.701305,-2.025495,-0.069813,0.045832,-0.004263,15.750000,183.590103,997.664062
0.000000,0.000000,0.000000,0.000000,0.713472,-9.617508,-2.092532,-0.049296,0.038371,-0.017320,15.750000,183.590103,997.664062
0.000000,0.000000,0.000000,0.000000,0.670376,-9.665392,-1.848324,-0.031975,0.044233,-0.046364,15.750000,183.590103,997.664062
0.000000,0.000000,0.000000,0.000000,0.909797,-9.737218,-2.135628,-0.021850,0.057289,-0.065816,15.750000,183.590103,997.664062
0.000000,0.000000,0.000000,0.000000,1.189918,-9.710882,-1.896208,-0.005596,0.018386,-0.042900,15.760000,183.553253,997.668457
0.000000,0.000000,0.000000,0.000000,1.132457,-9.768343,-2.049437,0.005596,0.002665,0.020251,15.760000,183.553253,997.668457
0.000000,0.000000,0.000000,0.000000,0.936133,-9.837775,-1.826776,-0.003464,0.042900,0.043700,15.760000,183.553253,997.668457
0.000000,0.000000,0.000000,0.000000,0.577003,-9.794679,-1.788469,-0.021850,-0.113779,0.039703,15.760000,183.553253,997.668457
0.000000,0.000000,0.000000,0.000000,0.806846,-9.773131,-1.893813,-0.055691,-0.054891,0.025847,15.770000,183.564011,997.667175
0.000000,0.000000,0.000000,0.000000,0.675165,-9.751583,-2.097321,-0.066882,-0.284582,0.051694,15.770000,183.564011,997.667175
0.000000,0.000000,0.000000,0.000000,0.045490,-9.658210,-2.042254,-0.057556,-0.203844,0.034907,15.770000,183.564011,997.667175
0.000000,0.000000,0.000000,0.000000,0.275333,-9.607931,-2.276886,-0.049562,-0.111381,-0.027179,15.770000,183.564011,997.667175
0.000000,0.000000,0.000000,0.000000,0.313640,-9.732430,-2.389413,-0.000799,-0.025314,-0.031176,15.790000,183.543015,997.669678
0.000000,0.000000,0.000000,0.000000,0.457293,-9.679757,-2.133234,0.053559,0.031975,-0.009859,15.790000,183.543015,997.669678
0.000000,0.000000,0.000000,0.000000,0.076614,-9.691729,-1.910573,0.045032,-0.031709,-0.003198,15.790000,183.543015,997.669678
0.000000,0.000000,0.000000,0.000000,-0.055067,-9.787497,-1.769315,0.041835,0.058089,-0.013057,15.790000,183.543015,997.669678
0.000000,0.000000,0.000000,0.000000,0.129287,-9.581595,-1.812411,0.011724,-0.010126,-0.049296,15.800000,183.535858,997.670471
0.000000,0.000000,0.000000,0.000000,0.117316,-9.864111,-1.647211,0.003730,0.047430,-0.056490,15.800000,183.535858,997.670471
0.000000,0.000000,0.000000,0.000000,0.280122,-9.703699,-1.891419,0.003997,0.008260,-0.022649,15.800000,183.535858,997.670471
0.000000,0.000000,0.000000,0.000000,0.100556,-9.888053,-1.790863,0.011191,0.002398,-0.023982,15.800000,183.535858,997.670471
0.000000,0.000000,0.000000,0.000000,0.016759,-9.780313,-1.733402,0.025847,0.039703,-0.034907,15.810000,183.558884,997.667786
0.000000,0.000000,0.000000,0.000000,0.359130,-9.955091,-1.841141,0.040769,0.019718,-0.009859,15.810000,183.558884,997.667786
0.000000,0.000000,0.000000,0.000000,0.057461,-9.809045,-1.599327,0.048230,0.042900,-0.006662,15.810000,183.558884,997.667786
0.000000,0.000000,0.000000,0.000000,0.000000,-9.732430,-1.577779,0.053825,0.036505,-0.023449,15.810000,183.558884,997.667786
0.000000,0.000000,0.000000,0.000000,0.150835,-9.799467,-1.307234,0.049029,0.006129,-0.054891,15.830000,183.537399,997.670288
0.000000,0.000000,0.000000,0.000000,0.256180,-9.751583,-1.304840,0.047164,0.069014,-0.020518,15.830000,183.537399,997.670288
0.000000,0.000000,0.000000,0.000000,0.158017,-9.909601,-1.264138,0.025047,-0.055424,-0.036239,15.830000,183.537399,997.670288
0.000000,0.000000,0.000000,0.000000,0.071826,-9.861717,-1.161188,0.017853,0.010392,-0.032775,15.830000,183.537399,997.670288
0.000000,0.000000,0.000000,0.000000,0.105345,-9.852140,-1.211466,0.023182,0.012257,-0.015721,15.840000,183.530746,997.671082
0.000000,0.000000,0.000000,0.000000,0.193930,-9.631873,-1.276109,0.013856,-0.026113,-0.028245,15.840000,183.530746,997.671082
0.000000,0.000000,0.000000,0.000000,0.112527,-9.746795,-0.981623,0.023182,0.020518,-0.006395,15.840000,183.530746,997.671082
0.000000,0.000000,0.000000,0.000000,-0.045490,-9.811439,-0.713472,-0.039436,-0.014655,-0.047430,15.840000,183.530746,997.671082
0.000000,0.000000,0.000000,0.000000,0.141258,-9.828198,-1.230620,-0.066349,-0.072478,-0.027179,15.860000,183.507202,997.673889
0.000000,0.000000,0.000000,0.000000,0.067038,-9.801862,-1.532289,-0.016254,-0.033308,-0.010126,15.860000,183.507202,997.673889
0.000000,0.000000,0.000000,0.000000,-0.134075,-9.847352,-1.429338,0.041302,-0.002931,-0.019452,15.860000,183.507202,997.673889
0.000000,0.000000,0.000000,0.000000,-0.169988,-9.876082,-1.003170,0.049562,0.045299,-0.037838,15.860000,183.507202,997.673889
0.000000,0.000000,0.000000,0.000000,0.076614,-9.821015,-0.802058,0.034640,0.016254,-0.031443,15.870000,183.500549,997.674683
0.000000,0.000000,0.000000,0.000000,0.011971,-9.842564,-0.945710,-0.001865,-0.003730,-0.012790,15.870000,183.500549,997.674683
0.000000,0.000000,0.000000,0.000000,-0.162806,-9.823410,-0.830788,-0.039969,-0.049296,-0.007194,15.870000,183.500549,997.674683
0.000000,0.000000,0.000000,0.000000,-0.169988,-9.832987,-1.060631,-0.013323,-0.029844,-0.018919,15.870000,183.500549,997.674683
0.000000,0.000000,0.000000,0.000000,-0.172383,-9.813833,-1.137246,-0.004530,-0.019452,-0.022383,15.890000,183.480072,997.677124
0.000000,0.000000,0.000000,0.000000,-0.093374,-9.792285,-0.936133,-0.000799,-0.019452,-0.026113,15.890000,183.480072,997.677124
0.000000,0.000000,0.000000,0.000000,-0.110133,-9.804255,-0.849942,-0.003198,-0.023715,-0.020251,15.890000,183.480072,997.677124
0.000000,0.000000,0.000000,0.000000,-0.292093,-9.801862,-0.960075,-0.025314,-0.019985,-0.040236,15.890000,183.480072,997.677124
0.000000,0.000000,0.000000,0.000000,-0.169988,-9.823410,-0.955287,-0.023449,-0.022649,-0.059954,15.900000,183.459091,997.679626
0.000000,0.000000,0.000000,0.000000,-0.090980,-9.777920,-0.993594,-0.017054,-0.022383,-0.051161,15.900000,183.459091,997.679626
0.000000,0.000000,0.000000,0.000000,-0.153229,-9.797073,-0.943315,-0.015455,-0.053026,-0.033041,15.900000,183.459091,997.679626
0.000000,0.000000,0.000000,0.000000,-0.134075,-9.842564,-0.912191,-0.009859,-0.017853,-0.036239,15.900000,183.459091,997.679626
-31.580563,116.772125,3.704000,0.000000,-0.167594,-9.775525,-0.914585,-0.024515,-0.017587,-0.041835,15.920000,183.439133,997.682007
-31.580563,116.772125,3.704000,0.000000,0.052672,-9.423578,-1.161188,-0.000533,-0.026646,-0.033574,15.920000,183.439133,997.682007
-31.580563,116.772125,3.704000,0.000000,-0.057461,-10.055647,-0.902614,-0.040502,-0.043433,-0.062619,15.920000,183.439133,997.682007
-31.580563,116.772125,3.704000,0.000000,-0.035913,-9.619903,-1.060631,-0.002931,-0.021317,-0.058089,15.920000,183.439133,997.682007
-31.580563,116.772125,3.704000,0.000000,-0.062249,-9.835381,-1.007959,-0.017054,-0.018386,-0.050095,15.930000,183.445267,997.681274
-31.580563,116.772125,3.704000,0.000000,-0.110133,-9.904813,-0.972046,-0.014655,-0.011724,-0.033041,15.930000,183.445267,997.681274
-31.580563,116.772125,3.704000,0.000000,-0.076614,-9.844957,-0.967257,-0.009326,-0.019185,-0.030377,15.930000,183.445267,997.681274
-31.580563,116.772125,3.704000,0.000000,-0.124498,-9.847352,-0.919373,-0.013057,-0.021051,-0.038637,15.930000,183.445267,997.681274
-31.580563,116.772125,3.704000,0.000000,-0.112527,-9.837775,-0.928950,-0.019985,-0.028245,-0.035972,15.950000,183.452438,997.680420
-31.580563,116.772125,3.704000,0.000000,-0.107739,-9.856929,-0.890643,-0.013856,-0.005063,-0.043700,15.950000,183.452438,997.680420
-31.580563,116.772125,3.704000,0.000000,-0.045490,-9.768343,-0.995988,-0.019718,-0.033574,-0.032775,15.950000,183.452438,997.680420
-31.580563,116.772125,3.704000,0.000000,-0.031125,-9.799467,-0.986411,-0.018652,-0.013057,-0.037305,15.950000,183.452438,997.680420
-31.580563,116.772125,3.704000,0.000000,0.031125,-9.892841,-1.022324,-0.009326,-0.022116,-0.031709,15.960000,183.442719,997.681580
-31.580563,116.772125,3.704000,0.000000,-0.124498,-9.861717,-0.967257,-0.009060,-0.019185,-0.035972,15.960000,183.442719,997.681580
-31.580563,116.772125,3.704000,0.000000,0.057461,-9.775525,-0.991199,-0.019718,-0.007461,-0.035972,15.960000,183.442719,997.681580
-31.580563,116.772125,3.704000,0.000000,-0.100556,-9.835381,-0.998382,-0.015455,-0.020251,-0.028778,15.960000,183.442719,997.681580
-31.580563,116.772125,3.704000,0.000000,-0.131681,-9.837775,-0.948104,-0.018652,-0.036505,-0.037838,15.980000,183.465744,997.678833
-31.580563,116.772125,3.704000,0.000000,-0.040701,-9.840169,-1.029507,-0.022649,-0.027446,-0.030910,15.980000,183.465744,997.678833
-31.580563,116.772125,3.704000,0.000000,-0.112527,-9.816227,-0.955287,-0.001865,-0.014655,-0.020518,15.980000,183.465744,997.678833
-31.580563,116.772125,3.704000,0.000000,-0.112527,-9.859323,-0.964863,-0.000533,0.006395,-0.027979,15.980000,183.465744,997.678833
-31.580563,116.772125,3.704000,0.000000,-0.124498,-9.830592,-0.909797,-0.014655,-0.016787,-0.040502,15.990000,183.429916,997.683105
-31.580563,116.772125,3.704000,0.000000,-0.035913,-9.878476,-0.950498,-0.011991,-0.001599,-0.027712,15.990000,183.429916,997.683105
-31.580563,116.772125,3.704000,0.000000,-0.143652,-9.777920,-0.948104,-0.021317,-0.015721,-0.033841,15.990000,183.429916,997.683105
-31.580563,116.772125,3.704000,0.000000,-0.040701,-9.842564,-0.909797,-0.018919,-0.038904,-0.021051,15.990000,183.429916,997.683105
-31.580563,116.772125,3.704000,0.000000,-0.177171,-9.835381,-0.981623,-0.014123,-0.013323,-0.026913,16.010000,183.451920,997.680481
-31.580563,116.772125,3.704000,0.000000,-0.407014,-9.837775,-0.847547,-0.001332,-0.020518,-0.039703,16.010000,183.451920,997.680481
-31.580563,116.772125,3.704000,0.000000,-0.016759,-9.799467,-0.998382,-0.016254,0.014123,-0.072478,16.010000,183.451920,997.680481
-31.580563,116.772125,3.704000,0.000000,-0.119710,-9.859323,-0.854730,-0.025580,-0.036505,-0.051694,16.010000,183.451920,997.680481
-31.580563,116.772125,3.704000,0.000000,-0.071826,-9.792285,-0.933739,-0.001865,-0.004796,-0.065816,16.020000,183.413025,997.685059
-31.580563,116.772125,3.704000,0.000000,-0.019154,-9.871294,-1.012747,-0.029844,-0.045565,-0.071678,16.020000,183.413025,997.685059
-31.580563,116.772125,3.704000,0.000000,-0.021548,-9.801862,-0.948104,-0.008527,-0.014655,-0.067948,16.020000,183.413025,997.685059
-31.580563,116.772125,3.704000,0.000000,0.167594,-9.706094,-0.955287,-0.006662,0.005063,-0.050361,16.020000,183.413025,997.685059
-31.580563,116.772125,3.704000,0.000000,-0.028730,-9.931149,-0.861913,-0.004263,0.015188,-0.048763,16.040001,183.408432,997.685608
-31.580576,116.772141,4.185520,0.000000,-0.052672,-9.849746,-0.766145,-0.005596,-0.014922,-0.045032,16.040001,183.408432,997.685608
-31.580576,116.772141,4.185520,0.000000,0.052672,-9.864111,-0.833182,-0.023715,-0.083936,-0.057822,16.040001,183.408432,997.685608
-31.580576,116.772141,4.185520,0.000000,0.330400,-9.813833,-1.012747,-0.021317,0.063951,-0.039436,16.040001,183.408432,997.685608
-31.580576,116.772141,4.185520,0.000000,0.193930,-9.797073,-0.984017,-0.009859,-0.020784,-0.014389,16.049999,183.399216,997.686707
-31.580576,116.772141,4.185520,0.000000,-0.095768,-9.806650,-0.873884,-0.002398,-0.036772,-0.025314,16.049999,183.399216,997.686707
-31.580576,116.772141,4.185520,0.000000,0.172383,-9.823410,-0.806846,-0.021051,-0.014655,-0.049828,16.049999,183.399216,997.686707
-31.580576,116.772141,4.185520,0.000000,-0.009577,-9.821015,-0.873884,-0.028511,-0.066083,-0.042368,16.049999,183.399216,997.686707
-31.580576,116.772141,4.185520,0.000000,0.253785,-9.852140,-1.070208,-0.019185,0.015721,-0.028778,16.070000,183.378738,997.689148
-31.580578,116.772141,3.611400,0.000000,-0.026336,-9.847352,-0.814029,-0.009326,-0.039969,-0.000266,16.070000,183.378738,997.689148
-31.580578,116.772141,3.611400,0.000000,-0.119710,-9.856929,-0.895431,-0.019185,-0.083669,-0.038637,16.070000,183.378738,997.689148
-31.580578,116.772141,3.611400,0.000000,0.155623,-9.821015,-0.921768,-0.029577,-0.017853,-0.053559,16.070000,183.573212,997.689148
-31.580578,116.772141,3.611400,0.000000,0.217872,-9.785102,-1.091756,-0.014922,-0.018652,-0.041568,16.080000,183.385910,997.688293
-31.580578,116.772141,3.611400,0.000000,-0.035913,-9.737218,-0.840365,-0.002398,-0.054358,-0.040769,16.080000,183.385910,997.688293
-31.580578,116.772141,3.611400,0.000000,0.117316,-9.847352,-0.928950,-0.012524,-0.051427,-0.041835,16.080000,183.385910,997.688293
-31.580578,116.772141,3.611400,0.000000,0.040701,-9.830592,-0.794875,-0.020784,-0.021850,-0.042368,16.090000,183.425308,997.683655
-31.580578,116.772141,3.611400,0.000000,-0.100556,-9.940725,-0.835576,-0.029044,-0.080738,-0.061286,16.090000,183.425308,997.683655
-31.580578,116.772141,3.611400,0.000000,0.191536,-9.880871,-1.010353,-0.025847,0.010658,-0.064217,16.090000,183.425308,997.683655
-31.580578,116.772141,3.611400,0.000000,0.146046,-9.835381,-0.873884,-0.015188,-0.033574,-0.029044,16.090000,183.425308,997.683655
-31.580578,116.772141,3.611400,0.000000,-0.026336,-9.878476,-0.833182,-0.018652,-0.025580,-0.035706,16.110001,183.444244,997.681396
-31.580578,116.772141,3.611400,0.000000,0.174777,-9.744401,-1.034295,-0.026380,-0.065550,-0.031975,16.110001,183.444244,997.681396
-31.580578,116.772141,3.611400,0.000000,0.011971,-9.844957,-0.928950,-0.029577,-0.051694,-0.037038,16.110001,183.444244,997.681396
-31.580578,116.772141,3.611400,0.000000,0.011971,-9.734824,-1.022324,-0.034374,-0.058622,-0.067415,16.110001,183.444244,997.681396
-31.580578,116.772141,3.611400,0.000000,0.181959,-9.825804,-1.103727,-0.032242,-0.014123,-0.082870,16.120001,183.450897,997.680603
-31.580578,116.772141,3.611400,0.000000,0.213084,-9.890448,-1.024718,-0.018386,-0.019452,-0.076475,16.120001,183.450897,997.680603
-31.580578,116.772141,3.611400,0.000000,0.313640,-9.804255,-1.094150,-0.007194,-0.015721,-0.073277,16.120001,183.450897,997.680603
-31.580578,116.772141,3.611400,0.000000,0.335188,-9.821015,-0.945710,-0.011991,-0.041302,-0.067149,16.120001,183.450897,997.680603
-31.580578,116.772141,3.611400,0.000000,0.497994,-9.854534,-0.960075,-0.022916,0.038904,-0.061553,16.139999,183.486221,997.676392
-31.580578,116.772141,3.611400,0.000000,0.471658,-9.794679,-0.993594,-0.011724,-0.048230,-0.011191,16.139999,183.486221,997.676392
-31.580578,116.772141,3.611400,0.000000,0.258574,-9.856929,-1.077391,-0.011191,0.007727,-0.040236,16.150000,183.507202,997.673889
-31.580578,116.772141,3.611400,0.000000,-0.059855,-9.868899,-0.610521,0.017853,-0.034640,0.018386,16.150000,183.507202,997.673889
-31.580578,116.772141,3.611400,0.000000,-0.045490,-9.892841,-0.612916,-0.021850,0.001865,-0.015988,16.170000,183.510773,997.673462
-31.580578,116.772141,3.611400,0.000000,0.186748,-9.792285,-1.043872,-0.025314,-0.008527,-0.030110,16.170000,183.510773,997.673462
-31.580578,116.772141,3.611400,0.000000,0.102951,-9.789890,-1.192312,-0.002665,0.045299,-0.014123,16.170000,183.510773,997.673462
-31.580578,116.772141,3.611400,0.000000,-0.069432,-9.840169,-0.742203,0.010392,0.012790,-0.036239,16.180000,183.521530,997.672180
-31.580578,116.772141,3.611400,0.000000,0.033519,-9.825804,-0.691924,0.000799,-0.024515,-0.047430,16.180000,183.521530,997.672180
-31.580578,116.772141,3.611400,0.000000,0.040701,-9.852140,-0.768539,-0.067948,-0.017853,-0.104720,16.180000,183.521530,997.672180
-31.580563,116.772125,10.519361,0.000000,0.110133,-9.844957,-0.823605,-0.035440,-0.086334,-0.091130,16.180000,183.521530,997.672180
-31.580563,116.772125,10.519361,0.000000,0.620098,-9.809045,-1.391031,-0.034640,0.112447,-0.115645,16.200001,183.525620,997.671692
-31.580563,116.772125,10.519361,0.000000,0.198719,-9.785102,-0.720655,0.043966,0.054358,-0.014123,16.200001,183.525620,997.671692
-31.580563,116.772125,10.519361,0.000000,0.229843,-9.876082,-0.675165,0.030643,0.054092,-0.031709,16.200001,183.525620,997.671692
-31.580563,116.772125,10.519361,0.000000,0.191536,-9.825804,-0.660800,-0.060221,0.001066,-0.069813,16.200001,183.525620,997.671692
-31.580563,116.772125,10.519361,0.000000,0.359130,-9.823410,-0.761356,-0.066083,0.110315,-0.062352,16.209999,183.533295,997.670776
-31.580563,116.772125,10.519361,0.000000,0.428562,-9.794679,-1.139640,-0.029577,-0.088732,-0.018119,16.209999,183.533295,997.670776
-31.580563,116.772125,10.519361,0.000000,0.248997,-9.823410,-1.098939,-0.041568,-0.051960,-0.038104,16.209999,183.533295,997.670776
-31.580559,116.772118,10.778640,0.000000,0.289698,-9.847352,-0.984017,-0.016787,0.018652,-0.044233,16.209999,183.533295,997.670776
-31.580559,116.772118,10.778640,0.000000,0.177171,-9.816227,-1.048660,-0.020784,-0.004530,-0.073544,16.230000,183.537399,997.670288
-31.580559,116.772118,10.778640,0.000000,0.538695,-9.837775,-1.010353,-0.026646,0.020251,-0.069547,16.230000,183.537399,997.670288
-31.580559,116.772118,10.778640,0.000000,0.380678,-9.782708,-1.134852,-0.001066,-0.082870,-0.059421,16.230000,183.537399,997.670288
-31.580559,116.772118,10.778640,0.000000,-0.069432,-9.782708,-1.831564,0.048230,-0.307498,-0.063152,16.230000,183.537399,997.670288
-31.580559,116.772118,10.778640,0.000000,1.074997,-9.847352,-1.762132,0.124704,0.195583,-0.050894,16.240000,183.547623,997.669128
-31.580559,116.772118,10.778640,0.000000,0.328006,-9.794679,-0.861913,0.249942,0.470306,-0.127902,16.240000,183.547623,997.669128
-31.580559,116.772118,10.778640,0.000000,0.198719,-9.734824,-0.543484,0.346135,0.221430,-0.148953,16.240000,183.547623,997.669128
-31.580559,116.772118,10.778640,0.000000,0.804452,-9.830592,1.233014,0.146554,-0.166539,-0.140159,16.240000,183.547623,997.669128
-31.580559,116.772118,10.778640,0.000000,1.939303,-9.708488,1.254562,0.004530,-0.069280,-0.104986,16.260000,183.537903,997.670227
-31.580559,116.772118,10.778640,0.000000,1.302446,-9.811439,0.562637,-0.157213,-0.245945,0.022116,16.260000,183.537903,997.670227
-31.580559,116.772118,10.778640,0.000000,1.082179,-9.801862,0.033519,-0.203577,-0.397029,0.078074,16.260000,183.537903,997.670227
-31.580559,116.772118,10.778640,0.000000,0.639252,-9.823410,-0.679953,-0.174266,0.061553,0.068214,16.260000,183.537903,997.670227
-31.580559,116.772118,10.778640,0.000000,0.363919,-9.797073,-0.555455,-0.138294,-0.192386,0.029044,16.270000,183.559402,997.667725
-31.580559,116.772118,10.778640,0.000000,0.052672,-9.821015,-0.064643,-0.074876,-0.168404,0.034640,16.270000,183.559402,997.667725
-31.580559,116.772118,10.778640,0.000000,0.785298,-9.888053,-1.197101,-0.146288,-0.159611,-0.094328,16.270000,183.559402,997.667725
-31.580559,116.772118,10.778640,0.000000,0.763750,-9.832987,-1.300052,-0.105786,-0.366919,-0.064750,16.270000,183.559402,997.667725
-31.580559,116.772118,10.778640,0.000000,0.191536,-9.888053,-0.823605,-0.061819,-0.166006,-0.056757,16.290001,183.555298,997.668213
-31.580559,116.772118,10.778640,0.000000,0.521936,-9.797073,-1.288081,-0.065816,-0.217433,-0.103387,16.290001,183.555298,997.668213
-31.580559,116.772118,10.778640,0.000000,0.627281,-9.969456,-0.785298,-0.037571,0.044499,-0.131366,16.290001,183.555298,997.668213
-31.580559,116.772118,10.778640,0.000000,1.070208,-9.708488,-1.403002,-0.042900,-0.106851,-0.088998,16.290001,183.555298,997.668213
-31.580559,116.772118,10.778640,0.000000,1.620875,-9.844957,-1.146823,-0.077008,-0.116711,0.019185,16.299999,183.559906,997.667664
-31.580559,116.772118,10.778640,0.000000,1.455675,-9.782708,-1.070208,-0.114312,0.168671,0.165473,16.299999,183.559906,997.667664
-31.580559,116.772118,10.778640,0.000000,0.497994,-9.725247,-1.431733,-0.171868,-0.123106,0.206775,16.299999,183.559906,997.667664
-31.580559,116.772118,10.778640,0.000000,-0.064643,-9.859323,-1.812411,-0.172668,-0.121773,0.184392,16.299999,183.559906,997.667664
-31.580559,116.772118,10.778640,0.000000,-0.924162,-9.706094,-2.063802,-0.109250,-0.054358,0.085002,16.320000,183.567078,997.666809
-31.580559,116.772118,10.778640,0.000000,-0.287304,-9.734824,-2.343924,-0.071678,-0.075409,0.016787,16.320000,183.567078,997.666809
-31.580559,116.772118,10.778640,0.000000,0.052672,-9.689334,-2.592921,0.081005,0.333611,-0.070879,16.320000,183.567078,997.666809
-31.580559,116.772118,10.778640,0.000000,0.304064,-9.718064,-1.460463,0.365587,0.637112,0.026646,16.320000,183.586014,997.666809
-31.580559,116.772118,10.778640,0.000000,-0.399832,-9.873688,-0.040701,0.121773,-0.201179,0.069813,16.330000,183.586014,997.664551
-31.580559,116.772118,10.778640,0.000000,-1.015141,-9.883265,-0.433351,-0.045032,-0.045032,0.049296,16.330000,183.586014,997.664551
-31.580559,116.772118,10.778640,0.000000,-1.271321,-9.821015,-1.673547,-0.061286,0.028778,-0.130567,16.330000,183.586014,997.664551
-31.580559,116.772118,10.778640,0.000000,-0.246603,-9.794679,-1.491588,0.041835,-0.099657,-0.191853,16.350000,183.580887,997.665161
-31.580576,116.772125,4.129960,0.000000,0.787692,-9.787497,-1.036689,0.037838,-0.088199,-0.056224,16.350000,183.580887,997.665161
-31.580576,116.772125,4.129960,0.000000,-0.294487,-9.852140,-0.500388,-0.034374,-0.174000,0.045565,16.350000,183.580887,997.665161
-31.580576,116.772125,4.129960,0.000000,-0.497994,-9.758766,-1.283292,-0.100190,-0.027446,-0.045032,16.350000,183.580887,997.665161
-31.580576,116.772125,4.129960,0.000000,-0.691924,-9.813833,-1.173159,-0.089798,-0.100190,-0.091397,16.370001,183.567581,997.666748
-31.580576,116.772125,4.129960,0.000000,-0.756568,-9.854534,-0.541090,-0.110848,-0.398894,-0.108450,16.370001,183.567581,997.666748
-31.580576,116.772125,4.129960,0.000000,0.861913,-9.775525,-1.788469,-0.199047,-0.254205,-0.120441,16.370001,183.567581,997.666748
-31.580576,116.772125,4.129960,0.000000,0.277727,-9.737218,-2.011129,-0.179596,0.057822,-0.039170,16.370001,183.567581,997.666748
-31.580576,116.772125,4.129960,0.000000,0.122104,-9.713276,-2.406173,-0.097525,-0.077807,0.044766,16.379999,183.575775,997.665771
-31.580580,116.772125,4.204040,0.000000,-0.210690,-9.696517,-2.487576,-0.000266,-0.119642,0.072744,16.379999,183.575775,997.665771
-31.580580,116.772125,4.204040,0.000000,-0.639252,-9.751583,-2.025495,0.086067,-0.006662,0.084202,16.379999,183.575775,997.665771
-31.580580,116.772125,4.204040,0.000000,-0.787692,-9.658210,-1.704672,0.101256,0.043433,0.014922,16.379999,183.575775,997.665771
-31.580580,116.772125,4.204040,0.000000,-0.842759,-9.773131,-1.601721,0.112181,-0.023982,-0.026913,16.389999,183.569122,997.666565
-31.580580,116.772125,4.204040,0.000000,-0.428562,-9.794679,-1.343147,0.068747,0.014389,-0.122040,16.389999,183.569122,997.666565
-31.580580,116.772125,4.204040,0.000000,-0.409408,-9.768343,-1.326388,0.067948,-0.066349,-0.088199,16.389999,183.569122,997.666565
-31.580580,116.772125,4.204040,0.000000,-0.632069,-9.897630,-0.773327,0.020251,-0.090331,-0.142557,16.389999,183.569122,997.666565
-31.580580,116.772125,4.204040,0.000000,0.136469,-9.789890,-1.084573,-0.025580,-0.022649,-0.122306,16.410000,183.575775,997.665771
-31.580580,116.772125,4.204040,0.000000,0.114922,-9.854534,-0.981623,-0.050095,-0.136695,-0.048496,16.410000,183.575775,997.665771
-31.580580,116.772125,4.204040,0.000000,0.562637,-9.765948,-1.577779,-0.064217,-0.117776,0.012257,16.410000,183.575775,997.665771
-31.580580,116.772125,4.204040,0.000000,-0.380678,-9.789890,-1.235408,-0.015455,-0.017853,0.102855,16.410000,183.575775,997.665771
-31.580580,116.772125,4.204040,0.000000,-1.029507,-9.753978,-1.089362,-0.053292,0.000000,0.032775,16.430000,183.565033,997.667053
-31.580580,116.772125,4.204040,0.000000,-1.060631,-9.751583,-1.352724,-0.047164,0.155881,-0.093262,16.430000,183.565033,997.667053
-31.580580,116.772125,4.204040,0.000000,-0.299275,-9.832987,-1.635240,-0.035440,0.021583,-0.090064,16.430000,183.565033,997.667053
-31.580580,116.772125,4.204040,0.000000,-0.102951,-9.737218,-1.458069,0.023182,0.143357,-0.033041,16.430000,183.565033,997.667053
-31.580580,116.772125,4.204040,0.000000,-0.416591,-9.837775,-1.314417,0.016254,0.025847,-0.019718,16.440001,183.572189,997.666199
-31.580580,116.772125,4.204040,0.000000,-0.004788,-9.749189,-1.323994,-0.019185,-0.027446,-0.001332,16.440001,183.572189,997.666199
-31.580580,116.772125,4.204040,0.000000,-0.330400,-9.823410,-1.453280,-0.028778,0.103121,-0.009593,16.440001,183.572189,997.666199
-31.580580,116.772125,4.204040,0.000000,-0.237026,-9.768343,-1.505953,-0.036505,-0.029311,-0.013856,16.440001,183.572189,997.666199
-31.580580,116.772125,4.204040,0.000000,-0.507571,-9.761160,-1.563414,-0.013590,0.044233,0.011991,16.459999,183.579865,997.665283
-31.580580,116.772125,4.204040,0.000000,-0.569820,-9.777920,-1.623269,0.014389,0.028245,-0.009326,16.459999,183.579865,997.665283
-31.580580,116.772125,4.204040,0.000000,-0.574608,-9.770737,-1.434127,0.032775,0.017853,-0.043167,16.459999,183.579865,997.665283
-31.580580,116.772125,4.204040,0.000000,-0.689530,-9.809045,-1.359907,0.046098,0.128168,-0.070346,16.459999,183.579865,997.665283
-31.580580,116.772125,4.204040,0.000000,-0.275333,-9.797073,-1.285686,0.027446,0.029044,-0.103121,16.469999,183.570663,997.666382
-31.580580,116.772125,4.204040,0.000000,-0.033519,-9.825804,-1.252167,0.044499,-0.038104,-0.040236,16.469999,183.570663,997.666382
-31.580580,116.772125,4.204040,0.000000,-0.160412,-9.763555,-1.019930,0.031443,0.066616,-0.018119,16.469999,183.570663,997.666382
-31.580580,116.772125,4.204040,0.000000,-0.304064,-9.828198,-1.007959,-0.031709,-0.074343,-0.015988,16.469999,183.570663,997.666382
-31.580580,116.772125,4.204040,0.000000,-0.366313,-9.789890,-1.206678,-0.037838,-0.058089,-0.018652,16.490000,183.548141,997.669067
-31.580580,116.772125,4.204040,0.000000,-0.414197,-9.799467,-1.271321,-0.021850,-0.040236,0.001865,16.490000,183.548141,997.669067
-31.580580,116.772125,4.204040,0.000000,-0.596156,-9.799467,-1.268927,-0.003198,-0.001865,-0.016787,16.490000,183.548141,997.669067
-31.580580,116.772125,4.204040,0.000000,-0.514753,-9.777920,-1.233014,0.007194,-0.012790,-0.035706,16.490000,183.548141,997.669067
-31.580580,116.772125,4.204040,0.000000,-0.407014,-9.787497,-1.180341,0.015188,-0.058089,-0.026380,16.500000,183.541489,997.669861
-31.580580,116.772125,4.204040,0.000000,-0.555455,-9.785102,-1.046266,0.031176,0.000000,-0.032242,16.500000,183.541489,997.669861
-31.580624,116.772118,13.464041,0.000000,-0.426168,-9.813833,-0.897826,0.004796,-0.020518,-0.047697,16.500000,183.541489,997.669861
-31.580624,116.772118,13.464041,0.000000,-0.572214,-9.785102,-0.888249,-0.035972,-0.048230,-0.054092,16.500000,183.541489,997.669861
-31.580624,116.772118,13.464041,0.000000,-0.399832,-9.799467,-1.110910,-0.041035,-0.025580,-0.071145,16.520000,183.547119,997.669189
-31.580624,116.772118,13.464041,0.000000,-0.232238,-9.809045,-1.340753,-0.017054,-0.012257,-0.046897,16.520000,183.547119,997.669189
-31.580624,116.772118,13.464041,0.000000,-0.351948,-9.804255,-1.122881,0.006129,-0.007727,-0.031975,16.520000,183.547119,997.669189
-31.580624,116.772118,13.464041,0.000000,-0.514753,-9.792285,-1.065420,0.007461,-0.015188,-0.058089,16.520000,183.547119,997.669189
-31.580624,116.772118,13.464041,0.000000,-0.363919,-9.775525,-1.082179,0.013323,0.011191,-0.069547,16.530001,183.525620,997.671692
-31.580624,116.772118,13.464041,0.000000,-0.244209,-9.818622,-0.960075,0.017320,0.013590,-0.066349,16.530001,183.525620,997.671692
-31.580652,116.772110,17.205080,0.000000,-0.162806,-9.825804,-0.845153,0.002931,-0.019185,-0.046364,16.530001,183.525620,997.671692
-31.580652,116.772110,17.205080,0.000000,-0.184354,-9.832987,-0.828394,-0.034640,-0.022649,-0.030643,16.530001,183.525620,997.671692
-31.580652,116.772110,17.205080,0.000000,-0.258574,-9.823410,-1.067814,-0.040502,-0.069547,-0.026913,16.549999,183.533295,997.670776
-31.580652,116.772110,17.205080,0.000000,-0.445322,-9.809045,-1.072602,-0.017853,-0.011991,-0.039170,16.549999,183.533295,997.670776
-31.580652,116.772110,17.205080,0.000000,-0.239420,-9.809045,-1.043872,-0.009060,-0.025047,-0.045299,16.549999,183.533295,997.670776
-31.580652,116.772110,17.205080,0.000000,-0.282516,-9.823410,-0.933739,0.009859,0.022116,-0.028778,16.549999,183.533295,997.670776
-31.580652,116.772110,17.205080,0.000000,-0.397437,-9.823410,-0.768539,-0.007727,0.012257,-0.034107,16.559999,183.526642,997.671570
-31.580652,116.772110,17.205080,0.000000,-0.213084,-9.809045,-0.945710,-0.028778,-0.017320,-0.035440,16.559999,183.526642,997.671570
-31.580652,116.772110,17.205080,0.000000,-0.287304,-9.806650,-1.000776,-0.020251,-0.016787,-0.017320,16.559999,183.526642,997.671570
-31.580652,116.772110,17.205080,0.000000,-0.433351,-9.806650,-1.022324,-0.020784,-0.025847,-0.019185,16.559999,183.526642,997.671570
-31.580652,116.772110,17.205080,0.000000,-0.330400,-9.821015,-0.928950,-0.013323,-0.021051,-0.037571,16.580000,183.531769,997.670959
-31.580652,116.772110,17.205080,0.000000,-0.344765,-9.773131,-0.948104,-0.019452,-0.020251,-0.028511,16.580000,183.531769,997.670959
-31.580652,116.772110,17.205080,0.000000,-0.366313,-9.811439,-1.055843,-0.025847,-0.030110,-0.032508,16.580000,183.531769,997.670959
-31.580652,116.772110,17.205080,0.000000,-0.371101,-9.835381,-1.077391,-0.008527,-0.019452,-0.033041,16.580000,183.531769,997.670959
-31.580652,116.772110,17.205080,0.000000,-0.435745,-9.794679,-1.007959,-0.009326,-0.017587,-0.049828,16.590000,183.541489,997.669861
-31.580652,116.772110,17.205080,0.000000,-0.375890,-9.844957,-1.000776,-0.015988,-0.021850,-0.048230,16.590000,183.541489,997.669861
-31.580652,116.772110,17.205080,0.000000,-0.316035,-9.856929,-0.986411,-0.008793,-0.022649,-0.039969,16.590000,183.541489,997.669861
-31.580652,116.772110,17.205080,0.000000,-0.330400,-9.821015,-1.005565,-0.009326,-0.018652,-0.032242,16.590000,183.541489,997.669861
-31.580652,116.772110,17.205080,0.000000,-0.275333,-9.806650,-0.912191,-0.015455,0.026646,-0.030643,16.610001,183.516403,997.672791
-31.580652,116.772110,17.205080,0.000000,-0.272939,-9.739613,-1.039083,-0.008260,0.027979,-0.022116,16.610001,183.516403,997.672791
-31.580652,116.772110,17.205080,0.000000,-0.509965,-9.799467,-1.053449,-0.009060,0.009859,-0.047963,16.610001,183.516403,997.672791
-31.580652,116.772110,17.205080,0.000000,-0.584185,-9.679757,-1.098939,0.027979,-0.092995,-0.072211,16.610001,183.516403,997.672791
-31.580652,116.772110,17.205080,0.000000,0.306458,-9.909601,-0.598550,0.005596,0.080205,-0.034640,16.629999,183.493896,997.675476
-31.580652,116.772110,17.205080,0.000000,-0.191536,-9.753978,-0.857124,-0.029311,-0.021051,0.063418,16.629999,183.493896,997.675476
-31.580652,116.772110,17.205080,0.000000,-0.610521,-9.818622,-0.605733,-0.071945,0.020518,0.058355,16.629999,183.493896,997.675476
-31.580729,116.772034,20.909081,0.000000,-0.737414,-9.758766,-1.098939,-0.111648,-0.100456,0.002931,16.639999,183.489792,997.675964
-31.580729,116.772034,20.909081,0.000000,-0.627281,-9.821015,-1.374272,-0.084469,-0.144956,-0.019718,16.639999,183.489792,997.675964
-31.580729,116.772034,20.909081,0.000000,-0.572214,-9.768343,-1.022324,-0.004263,-0.115645,0.013590,16.639999,183.489792,997.675964
-31.580729,116.772034,20.909081,0.000000,-0.881066,-9.761160,-1.012747,-0.073544,-0.117776,0.009593,16.660000,183.494400,997.675415
-31.580729,116.772034,20.909081,0.000000,-0.936133,-9.725247,-1.436521,-0.090331,-0.049562,-0.010925,16.660000,183.494400,997.675415
-31.580729,116.772034,20.909081,0.000000,-0.967257,-9.698911,-1.695095,-0.043433,-0.063418,-0.045299,16.670000,183.456024,997.679993
-31.580729,116.772034,20.909081,0.000000,-0.837971,-9.737218,-1.719037,-0.007461,-0.010126,-0.047697,16.670000,183.456024,997.679993
-31.580729,116.772034,20.909081,0.000000,-0.818817,-9.725247,-1.704672,0.023715,0.058355,-0.043167,16.690001,183.463699,997.679077
-31.580729,116.772034,20.909081,0.000000,-0.931344,-9.742006,-1.491588,0.038104,0.051960,-0.033308,16.690001,183.463699,997.679077
-31.580729,116.772034,20.909081,0.000000,-0.866701,-9.761160,-1.381454,0.034374,0.062619,-0.046098,16.690001,183.463699,997.679077
-31.580729,116.772034,20.909081,0.000000,-0.823605,-9.715671,-1.407791,0.026646,0.009060,-0.025580,16.690001,183.463699,997.679077
-31.580729,116.772034,20.909081,0.000000,-0.895431,-9.751583,-1.221043,0.020784,0.030910,-0.021583,16.700001,183.442719,997.681580
-31.580729,116.772034,20.909081,0.000000,-0.924162,-9.753978,-1.223437,0.004530,0.013590,-0.025580,16.700001,183.442719,997.681580
-31.580729,116.772034,20.909081,0.000000,-0.936133,-9.739613,-1.266533,-0.011991,0.013323,-0.030643,16.700001,183.442719,997.681580
-31.580729,116.772034,20.909081,0.000000,-0.823605,-9.753978,-1.362301,-0.005862,-0.038104,-0.014922,16.719999,183.437088,997.682251
-31.580729,116.772034,20.909081,0.000000,-0.866701,-9.768343,-1.175553,-0.030377,-0.093795,-0.019985,16.719999,183.437088,997.682251
-31.580729,116.772034,20.909081,0.000000,-0.869095,-9.751583,-1.280898,-0.059688,-0.062086,-0.023982,16.719999,183.437088,997.682251
-31.580729,116.772034,20.909081,0.000000,-0.895431,-9.725247,-1.367089,-0.076475,-0.097259,-0.025847,16.719999,183.437088,997.682251
-31.580729,116.772034,20.909081,0.000000,-0.897826,-9.737218,-1.467646,-0.082070,-0.136695,-0.009326,16.730000,183.412003,997.685181
-31.580729,116.772034,20.909081,0.000000,-1.058237,-9.727641,-1.541866,-0.081005,-0.145222,-0.013590,16.730000,183.412003,997.685181
-31.580729,116.772034,20.909081,0.000000,-1.314417,-9.684546,-1.795651,-0.035440,0.026646,-0.039703,16.730000,183.412003,997.685181
-31.580729,116.772034,20.909081,0.000000,-1.659182,-9.639056,-1.654393,-0.011991,-0.061819,-0.163874,16.730000,183.412003,997.685181
-31.580729,116.772034,20.909081,0.000000,-1.019930,-9.923966,-1.946486,0.082337,0.409819,-0.200646,16.750000,183.419174,997.684326
-31.580729,116.772034,20.909081,0.000000,-0.486023,-11.597513,-2.197877,-0.033841,0.543583,-0.239816,16.750000,183.419174,997.684326
-31.580729,116.772034,20.909081,0.000000,-0.871489,-10.443508,-1.031901,-0.209173,1.241182,-0.429005,16.750000,183.419174,997.684326
-31.580729,116.772034,20.909081,0.000000,0.526724,-9.239224,-1.996764,-0.354395,1.409320,-0.632582,16.750000,183.419174,997.684326
-31.580729,116.772034,20.909081,0.000000,1.407791,-9.126697,-2.726996,-0.127103,2.103721,-0.177730,16.760000,183.410477,997.685364
-31.580662,116.772110,3.463240,0.000000,1.019930,-8.638280,-2.291251,0.127902,2.985179,0.376511,16.760000,183.410477,997.685364
-31.580662,116.772110,3.463240,0.000000,1.479617,-10.058042,-3.007117,0.070613,2.607602,0.639776,16.760000,183.410477,997.685364
-31.580662,116.772110,3.463240,0.000000,0.708684,-8.772355,-2.415750,0.116977,2.132766,0.686674,16.760000,183.410477,997.685364
-31.580662,116.772110,3.463240,0.000000,-0.651223,-9.346964,-1.687912,0.139093,1.345103,0.332812,16.780001,183.417633,997.684509
-31.580662,116.772110,3.463240,0.000000,-1.304840,-9.421184,-1.268927,0.100190,1.075176,0.124172,16.780001,183.417633,997.684509
-31.580662,116.772110,3.463240,0.000000,-1.800440,-10.137050,-0.658405,0.243280,1.125005,0.077274,16.780001,183.417633,997.684509
-31.580662,116.772110,3.463240,0.000000,-0.931344,-10.208876,0.308852,0.179862,0.368784,-0.214236,16.780001,183.417633,997.684509
-31.580662,116.772110,3.463240,0.000000,0.373495,-10.307038,0.421380,-0.012524,0.093262,-0.479100,16.799999,183.409454,997.685486
-31.580658,116.772110,4.222560,0.000000,0.730232,-9.399636,0.064643,0.051960,0.490557,-0.553975,16.799999,183.409454,997.685486
-31.580658,116.772110,4.222560,0.000000,1.534683,-9.306262,-0.435745,0.156680,0.615528,-0.534790,16.799999,183.409454,997.685486
-31.580658,116.772110,4.222560,0.000000,1.841141,-9.950302,0.339977,0.083403,0.467109,-0.518270,16.799999,183.409454,997.685486
-31.580658,116.772110,4.222560,0.000000,2.588132,-10.199299,0.445322,-0.236619,0.556640,-0.325884,16.809999,183.400238,997.686584
-31.580658,116.772110,4.222560,0.000000,1.865083,-8.980651,1.352724,-0.341605,0.302435,-0.100989,16.809999,183.400238,997.686584
-31.580658,116.772110,4.222560,0.000000,1.824382,-9.380483,0.277727,-0.346135,0.352796,-0.080205,16.809999,183.400238,997.686584
-31.580658,116.772110,4.222560,0.000000,2.121263,-10.749966,-0.852336,-0.066882,0.423675,0.125770,16.809999,183.400238,997.686584
-31.580658,116.772110,4.222560,0.000000,1.769315,-8.736442,-0.019154,0.127103,0.031975,0.195051,16.830000,183.408432,997.685608
-31.580658,116.772110,4.222560,0.000000,1.448492,-9.248801,0.663194,-0.052227,-0.535323,0.140426,16.830000,183.408432,997.685608
-31.580658,116.772110,4.222560,0.000000,1.932121,-9.988609,-0.050278,-0.346135,-0.638444,0.162809,16.830000,183.408432,997.685608
-31.580658,116.772110,4.222560,0.000000,1.661576,-10.062830,-1.855506,-0.197982,-0.943810,0.062352,16.830000,183.408432,997.685608
-31.580658,116.772110,4.222560,0.000000,1.168370,-10.582372,-2.063802,0.135629,-1.304067,-0.193985,16.840000,183.373108,997.689819
-31.580658,116.772110,4.222560,0.000000,0.974440,-10.544065,-1.814805,0.250741,-1.123139,-0.311761,16.840000,183.373108,997.689819
-31.580658,116.772110,4.222560,0.000000,1.912967,-8.868123,-1.058237,0.110848,-0.427672,-0.312827,16.840000,183.373108,997.689819
-31.580658,116.772110,4.222560,0.000000,2.600103,-7.970297,-1.256956,-0.135629,0.387703,-0.317623,16.840000,183.373108,997.689819
-31.580658,116.772110,4.222560,0.000000,2.597709,-8.652645,-1.225831,-0.263265,0.447657,-0.300836,16.860001,183.377716,997.689270
-31.580658,116.772110,4.222560,0.000000,2.923320,-9.119514,-1.735796,-0.219299,0.456450,-0.211838,16.860001,183.377716,997.689270
-31.580658,116.772110,4.222560,0.000000,3.399766,-11.585542,-2.688689,-0.218233,1.170037,0.029844,16.860001,183.377716,997.689270
-31.580658,116.772110,4.222560,0.000000,2.770091,-10.098742,-2.339135,-0.022383,1.137262,0.297639,16.860001,183.377716,997.689270
-31.580658,116.772110,4.222560,0.000000,1.685518,-8.427590,-1.704672,0.092729,0.529727,0.295240,16.879999,183.353149,997.692200
-31.580658,116.772110,4.222560,0.000000,1.304840,-9.057265,-0.818817,-0.043700,0.143890,0.058888,16.879999,183.353149,997.692200
-31.580658,116.772110,4.222560,0.000000,2.327164,-10.156203,-0.416591,-0.112980,-0.303234,-0.169737,16.879999,183.353149,997.692200
-31.580658,116.772110,4.222560,0.000000,2.097321,-11.791444,-1.307234,-0.037305,-0.340006,-0.023982,16.879999,183.353149,997.692200
-31.580658,116.772110,4.222560,0.000000,1.908179,-9.734824,-1.534683,0.176931,-0.453519,-0.118309,16.889999,183.359802,997.691406
-31.580658,116.772110,4.222560,0.000000,1.553837,-8.353370,-1.003170,0.297639,-0.340539,-0.268594,16.889999,183.359802,997.691406
-31.580658,116.772110,4.222560,0.000000,2.138022,-8.123527,-0.225055,0.185991,0.226227,-0.379176,16.889999,183.359802,997.691406
-31.580658,116.772110,4.222560,0.000000,3.201048,-8.674192,0.629675,-0.091663,0.240882,-0.404757,16.889999,183.359802,997.691406
-31.580658,116.772110,4.222560,0.000000,4.350265,-10.022128,0.533907,-0.520668,0.175599,0.005862,16.910000,183.349564,997.692627
-31.580658,116.772110,4.222560,0.000000,3.670311,-10.421960,-1.470040,-0.569697,-0.123639,0.054092,16.910000,183.349564,997.692627
-31.580658,116.772110,4.222560,0.000000,2.394202,-9.689334,-2.995146,-0.132165,-0.395430,0.035706,16.910000,183.349564,997.692627
-31.580658,116.772110,4.222560,0.000000,3.344700,-9.639056,-3.157952,0.094861,0.528395,0.151884,16.910000,183.349564,997.692627
-31.580658,116.772110,4.222560,0.000000,2.391808,-8.633492,-1.996764,0.175332,0.302701,0.320021,16.920000,183.371063,997.690063
-31.580658,116.772110,4.222560,0.000000,1.455675,-9.251195,-2.602497,-0.006928,0.180928,0.253672,16.920000,183.371063,997.690063
-31.580658,116.772110,4.222560,0.000000,1.173159,-9.473856,-2.561796,0.051960,0.243280,0.078074,16.920000,183.371063,997.690063
-31.580658,116.772110,4.222560,0.000000,1.848324,-10.881647,-2.255338,-0.004263,0.072478,-0.273923,16.920000,183.371063,997.690063
-31.580658,116.772110,4.222560,0.000000,1.436521,-8.374918,-0.658405,-0.029311,1.682178,-0.180129,16.940001,183.349564,997.692627
-31.580658,116.772110,4.222560,0.000000,1.247379,-10.275913,0.047884,-0.209440,1.448490,-0.444459,16.940001,183.349564,997.692627
-31.580658,116.772110,4.222560,0.000000,2.157176,-8.370130,0.701501,-0.574493,1.777305,-0.220897,16.940001,183.349564,997.692627
-31.580658,116.772110,4.222560,0.000000,3.011906,-9.756371,0.359130,-0.767678,1.868701,-0.013590,16.940001,183.349564,997.692627
-31.580658,116.772110,4.222560,0.000000,2.789245,-9.756371,-0.469264,-0.719449,1.638744,0.264597,16.959999,183.382324,997.688721
-31.580658,116.772110,4.222560,0.000000,1.831564,-10.359711,-1.101333,-0.400760,1.349366,0.210239,16.959999,183.382324,997.688721
-31.580658,116.772110,4.222560,0.000000,1.790863,-10.864887,-1.908179,-0.138294,1.152983,0.193452,16.959999,183.382324,997.688721
-31.580658,116.772110,4.222560,0.000000,1.572991,-7.941567,-2.152387,-0.058622,0.606735,0.189455,16.959999,183.382324,997.688721
-31.580658,116.772110,4.222560,0.000000,1.127669,-10.290278,-2.750938,0.082337,0.349599,0.224361,16.969999,183.417633,997.684509
-31.580658,116.772110,4.222560,0.000000,1.290475,-9.538500,-1.403002,-0.063951,0.782067,0.115911,16.969999,183.417633,997.684509
-31.580658,116.772110,4.222560,0.000000,1.872266,-10.520123,-1.010353,-0.315758,0.516404,0.057556,16.969999,183.417633,997.684509
-31.580658,116.772110,4.222560,0.000000,1.731008,-9.844957,-1.812411,-0.365853,0.512407,0.204643,16.969999,183.417633,997.684509
-31.580658,116.772110,4.222560,0.000000,0.876278,-9.533711,-2.360683,-0.062352,0.449256,0.227825,16.980000,183.425308,997.683655
-31.580658,116.772110,4.222560,0.000000,0.229843,-9.375694,-1.606509,0.039170,0.535590,0.052493,16.980000,183.425308,997.683655
-31.580658,116.772110,4.222560,0.000000,0.339977,-9.931149,-0.644040,0.003997,0.362922,-0.111381,16.980000,183.425308,997.683655
-31.580658,116.772110,4.222560,0.000000,0.486023,-10.479421,0.296881,-0.270193,0.268061,-0.209706,16.980000,183.425308,997.683655
-31.580658,116.772110,4.222560,0.000000,0.598550,-9.935937,0.083797,-0.442328,-0.406089,-0.128168,17.000000,183.432480,997.682800
-31.580658,116.772110,4.222560,0.000000,0.567426,-8.547300,-0.268151,-0.310429,-0.587550,0.032775,17.000000,183.432480,997.682800
-31.580658,116.772110,4.222560,0.000000,0.986411,-9.612720,-1.134852,-0.077807,-1.155914,-0.005862,17.000000,183.432480,997.682800
-31.580658,116.772110,4.222560,0.000000,0.428562,-9.974244,-1.702277,0.127103,-0.991240,-0.004530,17.000000,183.432480,997.682800
-31.580658,116.772110,4.222560,0.000000,-0.225055,-10.232818,-1.829170,0.201446,-1.062652,-0.100723,17.010000,183.470352,997.678284
-31.580658,116.772110,4.222560,0.000000,-0.110133,-11.022904,-2.358289,0.184925,-1.221464,-0.140426,17.010000,183.470352,997.678284
-31.580658,116.772110,4.222560,0.000000,-0.656011,-8.738836,-1.594538,0.096193,-1.457550,-0.241948,17.010000,183.470352,997.678284
-31.580658,116.772110,4.222560,0.000000,-0.220267,-9.162610,-2.365471,0.036505,-1.606236,-0.072211,17.010000,183.470352,997.678284
-31.580658,116.772110,4.222560,0.000000,-0.040701,-10.108319,-1.704672,0.097259,-1.657397,0.091130,17.020000,183.479568,997.677185
-31.580658,116.772110,4.222560,0.000000,-0.591368,-10.498574,-0.294487,0.001066,-1.682444,0.116178,17.020000,183.479568,997.677185
-31.580658,116.772110,4.222560,0.000000,-1.249773,-11.168951,-0.572214,0.012524,-1.876695,-0.033308,17.020000,183.479568,997.677185
-31.580658,116.772110,4.222560,0.000000,-1.477222,-11.159374,-0.641646,0.022116,-2.431470,-0.208374,17.020000,183.477005,997.677185
-31.580658,116.772110,4.222560,0.000000,-1.424550,-8.446744,-0.217872,0.129767,-1.830331,-0.098325,17.040001,183.477005,997.677490
-31.580658,116.772110,4.222560,0.000000,-0.454898,-7.544129,-0.462081,0.268061,-1.583320,-0.163075,17.040001,183.477005,997.677490
-31.580658,116.772110,4.222560,0.000000,0.758962,-8.875306,-0.146046,0.240349,-0.927556,-0.088199,17.040001,183.477005,997.677490
-31.580679,116.772064,3.370640,0.000000,1.084573,-10.414778,0.545878,0.035972,-0.323752,0.016521,17.049999,183.461136,997.679382
-31.580679,116.772064,3.370640,0.000000,0.105345,-11.712435,0.529119,-0.208107,-0.211571,0.014655,17.049999,183.461136,997.679382
-31.580679,116.772064,3.370640,0.000000,-0.730232,-10.745177,-0.739808,-0.237685,-0.076475,0.252073,17.049999,183.461136,997.679382
-31.580679,116.772064,3.370640,0.000000,-1.127669,-8.154651,-0.859518,-0.219032,0.073810,0.216634,17.049999,183.461136,997.679382
-31.580679,116.772064,3.370640,0.000000,-1.371878,-9.617508,-1.031901,-0.043700,-0.044499,0.160943,17.059999,183.470352,997.678284
-31.580679,116.772064,3.370640,0.000000,-1.508347,-10.936713,-0.356736,0.011991,-0.108184,0.043433,17.059999,183.470352,997.678284
-31.580679,116.772064,3.370640,0.000000,-1.764527,-11.547235,0.275333,-0.108450,-0.288845,-0.140159,17.059999,183.470352,997.678284
-31.580679,116.772064,3.370640,0.000000,-0.701501,-8.944737,-0.323217,-0.002132,-0.132165,-0.229158,17.059999,183.470352,997.678284
-31.580671,116.772079,3.185440,0.000000,-1.273715,-7.706935,-0.543484,0.024781,0.201446,-0.228625,17.070000,183.493896,997.675476
-31.580671,116.772079,3.185440,0.000000,-0.459687,-8.113950,-0.500388,-0.070613,0.446325,-0.247277,17.070000,183.493896,997.675476
-31.580671,116.772079,3.185440,0.000000,0.646434,-9.277532,-1.319205,-0.083936,0.642708,-0.188655,17.070000,183.493896,997.675476
-31.580671,116.772079,3.185440,0.000000,0.440533,-9.773131,-1.515530,-0.039703,0.507345,-0.046897,17.070000,183.493896,997.675476
-31.580671,116.772079,3.185440,0.000000,-0.869095,-10.074800,-1.177947,-0.241415,1.407721,0.096992,17.090000,183.507706,997.673828
-31.580671,116.772079,3.185440,0.000000,-0.916979,-11.161768,-2.066196,-0.438331,0.997636,0.103387,17.090000,183.507706,997.673828
-31.580671,116.772079,3.185440,0.000000,-1.285686,-8.769960,-2.020706,-0.504147,1.278753,0.289112,17.090000,183.507706,997.673828
-31.580671,116.772079,3.185440,0.000000,-1.668759,-8.492233,-2.817975,-0.463378,0.896113,0.291776,17.090000,183.507706,997.673828
-31.580671,116.772079,3.185440,0.000000,-1.125275,-9.150639,-3.969586,-0.197449,0.527329,0.396496,17.100000,183.484680,997.676575
-31.580671,116.772079,3.185440,0.000000,-2.003947,-10.417171,-4.027047,0.010392,0.222496,0.339473,17.100000,183.484680,997.676575
-31.580671,116.772079,3.185440,0.000000,-2.530671,-11.022904,-3.383007,-0.085002,0.405822,0.035173,17.100000,183.484680,997.676575
-31.580671,116.772079,3.185440,0.000000,-2.063802,-9.433155,-3.507505,-0.181994,-0.126570,-0.477501,17.100000,183.484680,997.676575
-31.580671,116.772079,3.185440,0.000000,-0.660800,-7.776367,-3.627216,0.025047,0.237951,-0.497752,17.110001,183.508224,997.673767
-31.580671,116.772079,3.185440,0.000000,0.181959,-6.821081,-3.797204,0.238750,0.244346,-0.333877,17.110001,183.508224,997.673767
-31.580671,116.772079,3.185440,0.000000,0.354342,-9.018958,-4.031836,0.422610,0.371982,-0.164407,17.110001,183.508224,997.673767
-31.580671,116.772079,3.185440,0.000000,0.112527,-11.465832,-3.292027,0.339207,0.426873,0.009326,17.110001,183.508224,997.673767
-31.580671,116.772079,3.185440,0.000000,-0.351948,-9.919178,-2.671929,0.464977,0.234753,-0.215568,17.129999,183.522552,997.672058
-31.580671,116.772079,3.185440,0.000000,1.386243,-10.273520,-0.931344,-0.018652,0.201446,-0.051694,17.129999,183.522552,997.672058
-31.580671,116.772079,3.185440,0.000000,1.522712,-6.651093,-0.974440,-0.089798,-0.189721,-0.200113,17.139999,183.513855,997.673096
-31.580671,116.772079,3.185440,0.000000,2.157176,-8.250419,-1.836353,0.057023,-0.119375,-0.181727,17.150000,183.537399,997.670288
-31.580692,116.772057,9.648920,0.000000,2.418144,-10.809821,-1.781286,0.257136,0.116711,-0.222496,17.150000,183.537399,997.670288
-31.580692,116.772057,9.648920,0.000000,2.020706,-12.715605,-0.651223,0.275256,0.301103,0.096193,17.150000,183.537399,997.670288
-31.580692,116.772057,9.648920,0.000000,0.785298,-10.771513,-0.117316,-0.037838,0.940346,0.299237,17.150000,183.537399,997.670288
-31.580692,116.772057,9.648920,0.000000,0.531513,-7.953538,-0.414197,-0.362922,0.901709,0.168404,17.170000,183.534317,997.670654
-31.580692,116.772057,9.648920,0.000000,0.090980,-8.169016,-1.448492,-0.285381,0.185458,-0.113779,17.170000,183.534317,997.670654
-31.580692,116.772057,9.648920,0.000000,0.663194,-11.836933,-1.391031,-0.019718,-0.139893,-0.007727,17.170000,183.534317,997.670654
-31.580692,116.772057,9.648920,0.000000,0.785298,-11.554418,0.361524,0.019185,-0.186790,-0.033841,17.170000,183.534317,997.670654
-31.580692,116.772057,9.648920,0.000000,1.254562,-9.598354,0.612916,-0.086067,0.104187,-0.043700,17.180000,183.561447,997.667480
-31.580721,116.772057,10.389721,0.000000,1.879448,-6.598420,0.232238,-0.134031,0.213170,-0.071678,17.180000,183.561447,997.667480
-31.580721,116.772057,10.389721,0.000000,1.302446,-9.964667,-0.715866,-0.328548,0.779403,-0.058355,17.180000,183.561447,997.667480
-31.580721,116.772057,10.389721,0.000000,1.833959,-11.985373,-2.351106,-0.344536,-0.018652,-0.208640,17.180000,183.561447,997.667480
-31.580721,116.772057,10.389721,0.000000,0.964863,-10.383653,-3.119645,-0.102588,0.203044,0.157746,17.190001,183.540466,997.669922
-31.580721,116.772057,10.389721,0.000000,0.040701,-8.987833,-2.504335,0.045832,-0.390101,0.347201,17.190001,183.540466,997.669922
-31.580721,116.772057,10.389721,0.000000,-0.584185,-7.831434,-1.084573,0.166006,0.298172,0.315492,17.190001,183.540466,997.669922
-31.580721,116.772057,10.389721,0.000000,-0.196325,-10.565612,-1.620875,0.098058,0.134830,0.054358,17.190001,183.540466,997.669922
-31.580721,116.772057,10.389721,0.000000,-0.301669,-11.379641,-1.355118,0.289378,-0.158545,-0.013057,17.209999,183.564514,997.667114
-31.580734,116.772049,12.408400,0.000000,0.483629,-10.876859,-0.373495,0.304034,0.178796,0.055691,17.209999,183.564514,997.667114
-31.580734,116.772049,12.408400,0.000000,-0.050278,-8.762778,1.225831,0.160410,-0.030910,0.175599,17.209999,183.564514,997.667114
-31.580734,116.772049,12.408400,0.000000,-0.244209,-7.884106,0.756568,-0.171335,-0.070346,0.062619,17.209999,183.564514,997.667114
-31.580734,116.772049,12.408400,0.000000,-0.134075,-10.098742,-0.304064,0.071945,-0.478300,-0.138560,17.219999,183.587540,997.664368
-31.580734,116.772049,12.408400,0.000000,-1.151611,-11.374852,1.438915,0.073277,-0.335210,-0.485761,17.219999,183.587540,997.664368
-31.580734,116.772049,12.408400,0.000000,1.211466,-10.620679,-0.287304,-0.146288,-0.395963,-0.481764,17.219999,183.587540,997.664368
-31.580734,116.772049,12.408400,0.000000,1.438915,-9.768343,-0.976834,0.007194,-0.691737,-0.156680,17.219999,183.587540,997.664368
-31.580734,116.772049,12.408400,0.000000,0.416591,-8.008605,-0.852336,0.183326,-0.515605,0.073277,17.230000,183.631561,997.659119
-31.580734,116.772049,12.408400,0.000000,-0.244209,-9.938332,0.323217,0.115645,-0.606735,0.030110,17.230000,183.631561,997.659119
-31.580734,116.772049,12.408400,0.000000,-0.079009,-9.818622,0.342371,0.178796,0.038371,0.235819,17.230000,183.631561,997.659119
-31.580734,116.772049,12.408400,0.000000,1.132457,-9.576807,-0.418985,0.318956,0.179596,0.191320,17.230000,183.631561,997.659119
-31.580734,116.772049,12.408400,0.000000,0.160412,-7.671022,1.259350,0.188655,0.283516,0.069547,17.240000,183.682739,997.653076
-31.580734,116.772049,12.408400,0.000000,0.718261,-10.443508,0.938527,-0.217433,0.372781,-0.027179,17.240000,183.682739,997.653076
-31.580734,116.772049,12.408400,0.000000,0.450110,-11.291056,0.454898,-0.241948,0.703727,-0.034907,17.240000,183.682739,997.653076
-31.580734,116.772049,12.408400,0.000000,-1.036689,-10.448297,0.050278,-0.142557,0.263265,0.056224,17.240000,183.682739,997.653076
-31.580734,116.772049,12.408400,0.000000,-0.694318,-10.273520,-0.663194,-0.215835,-0.266729,0.012257,17.250000,183.723175,997.648254
-31.580734,116.772049,12.408400,0.000000,0.021548,-7.807492,0.191536,-0.209440,-0.152949,0.093262,17.250000,183.723175,997.648254
-31.580734,116.772049,12.408400,0.000000,0.363919,-10.065224,-0.543484,-0.224361,-0.869201,0.071945,17.250000,183.723175,997.648254
-31.580734,116.772049,12.408400,0.000000,-1.154005,-11.611878,-0.430956,-0.238217,-0.407155,0.008260,17.250000,183.723175,997.648254
-31.580734,116.772049,12.408400,0.000000,-0.967257,-10.879252,-0.093374,-0.155881,-0.545182,0.043433,17.260000,183.763596,997.643433
-31.580734,116.772049,12.408400,0.000000,-1.096544,-7.898471,0.074220,-0.271525,-0.738634,0.145755,17.260000,183.763596,997.643433
-31.580734,116.772049,12.408400,0.000000,-0.615310,-7.316680,-1.589750,-0.247544,-0.492156,0.122573,17.260000,183.763596,997.643433
-31.580734,116.772049,12.408400,0.000000,-0.586579,-8.870518,-2.075773,-0.338940,-0.410619,-0.146021,17.260000,183.777420,997.643433
-31.580734,116.772049,12.408400,0.000000,-0.931344,-12.258312,-3.031059,-0.220098,-0.641642,-0.149485,17.270000,183.777420,997.641785
-31.580734,116.772049,12.408400,0.000000,-1.271321,-10.230424,-2.327164,0.034107,0.075675,0.153216,17.270000,183.777420,997.641785
-31.580734,116.772049,12.408400,0.000000,-1.362301,-9.315839,-2.255338,-0.003464,-0.041302,0.093795,17.270000,183.777420,997.641785
-31.580734,116.772049,12.408400,0.000000,-1.290475,-7.718906,-2.286463,0.095127,0.046364,0.011991,17.280001,183.765656,997.643188
-31.580734,116.772049,12.408400,0.000000,-0.984017,-10.060435,-2.688689,0.269127,-0.173467,-0.150551,17.280001,183.765656,997.643188
-31.580734,116.772049,12.408400,0.000000,-2.190695,-13.311762,-1.357512,0.371715,0.036505,-0.129234,17.280001,183.765656,997.643188
-31.580734,116.772049,12.408400,0.000000,-2.676718,-11.020511,-0.378284,0.328015,0.211305,-0.238484,17.280001,183.765656,997.643188
-31.580734,116.772049,12.408400,0.000000,-0.751779,-8.061277,-0.181959,0.118043,-0.064217,-0.448989,17.290001,183.792770,997.640015
-31.580734,116.772049,12.408400,0.000000,0.658405,-6.284780,-0.933739,0.072744,0.287247,-0.211571,17.290001,183.792770,997.640015
-31.580734,116.772049,12.408400,0.000000,-0.184354,-9.840169,-1.051055,-0.233421,0.100723,-0.098591,17.290001,183.792770,997.640015
-31.580748,116.772057,4.741120,0.000000,0.797269,-12.191275,-2.829947,-0.199580,0.562236,-0.222230,17.290001,183.792770,997.640015
-31.580748,116.772057,4.741120,0.000000,-0.162806,-11.197681,-3.145981,0.243280,0.635247,-0.265663,17.299999,183.802490,997.638855
-31.580748,116.772057,4.741120,0.000000,-0.916979,-8.834604,-2.418144,0.227292,0.916098,-0.177464,17.299999,183.802490,997.638855
-31.580748,116.772057,4.741120,0.000000,-1.482011,-7.271191,-0.258574,0.194784,0.770343,-0.063951,17.299999,183.802490,997.638855
-31.580748,116.772057,4.741120,0.000000,-1.429338,-8.552089,0.105345,-0.061553,0.504147,-0.294974,17.299999,183.802490,997.638855
-31.580748,116.772057,4.741120,0.000000,-0.260968,-10.879252,-0.708684,-0.155348,0.185991,-0.284848,17.309999,183.830643,997.635498
-31.580748,116.772057,4.741120,0.000000,0.974440,-12.880805,-1.398214,0.011724,0.315492,-0.031709,17.309999,183.830643,997.635498
-31.580748,116.772057,4.741120,0.000000,0.050278,-9.667787,0.095768,-0.024781,0.744496,0.017054,17.309999,183.830643,997.635498
